"SubsteateSapphireDoubleVslowResin - RawData"
"Wavelength nm.","T%"
200.00,79.17488
201.00,80.70849
202.00,79.39842
203.00,79.84216
204.00,79.68382
205.00,80.58754
206.00,80.54693
207.00,80.60052
208.00,81.41735
209.00,82.07863
210.00,81.76027
211.00,82.45904
212.00,81.82395
213.00,81.28033
214.00,81.99515
215.00,81.48499
216.00,82.07104
217.00,82.06375
218.00,82.16164
219.00,81.92893
220.00,82.25732
221.00,82.90109
222.00,82.06509
223.00,82.47953
224.00,82.21664
225.00,82.53254
226.00,82.74729
227.00,82.21706
228.00,82.97116
229.00,82.79165
230.00,82.94899
231.00,82.33421
232.00,83.23229
233.00,83.08743
234.00,83.63611
235.00,83.48320
236.00,83.54828
237.00,83.33403
238.00,83.68614
239.00,83.81127
240.00,83.45347
241.00,83.66148
242.00,83.74607
243.00,83.51312
244.00,83.65651
245.00,83.75475
246.00,83.78990
247.00,83.77694
248.00,84.01256
249.00,84.00360
250.00,84.00019
251.00,84.11110
252.00,83.95579
253.00,84.09285
254.00,84.18059
255.00,84.15193
256.00,84.15997
257.00,84.21683
258.00,84.31539
259.00,84.44434
260.00,84.37544
261.00,84.09069
262.00,84.20491
263.00,84.48025
264.00,84.23923
265.00,84.16122
266.00,84.35735
267.00,84.33574
268.00,84.27400
269.00,84.27206
270.00,84.47333
271.00,84.34484
272.00,84.60971
273.00,84.37641
274.00,84.62861
275.00,84.73755
276.00,84.57300
277.00,84.38648
278.00,84.73081
279.00,84.47694
280.00,84.61151
281.00,84.68803
282.00,84.95216
283.00,84.67754
284.00,84.56656
285.00,84.72513
286.00,84.73901
287.00,84.69555
288.00,84.77563
289.00,84.88796
290.00,85.03100
291.00,84.84492
292.00,84.87955
293.00,84.93278
294.00,84.93515
295.00,84.89817
296.00,84.84207
297.00,85.11531
298.00,84.98535
299.00,84.95976
300.00,85.05071
301.00,85.19419
302.00,85.05672
303.00,85.15465
304.00,85.04962
305.00,84.96200
306.00,85.74653
307.00,86.05017
308.00,85.99524
309.00,85.89689
310.00,85.80281
311.00,85.68801
312.00,85.78325
313.00,85.72133
314.00,85.67603
315.00,85.97982
316.00,85.80778
317.00,85.75829
318.00,86.00740
319.00,86.14138
320.00,86.11967
321.00,86.21721
322.00,85.92877
323.00,86.31260
324.00,84.43461
325.00,84.55718
326.00,84.37094
327.00,84.38933
328.00,84.46431
329.00,84.36423
330.00,84.58580
331.00,84.41982
332.00,84.62436
333.00,84.52097
334.00,84.54342
335.00,84.70630
336.00,84.67087
337.00,84.71428
338.00,84.58795
339.00,84.60459
340.00,84.56069
341.00,84.64103
342.00,84.66280
343.00,84.55918
344.00,84.49844
345.00,84.49633
346.00,84.60910
347.00,84.56455
348.00,84.78855
349.00,84.62474
350.00,84.65241
351.00,84.71796
352.00,84.76660
353.00,84.45734
354.00,84.70863
355.00,84.77011
356.00,84.71618
357.00,84.63309
358.00,84.53507
359.00,84.84589
360.00,84.57525
361.00,84.74665
362.00,84.53798
363.00,84.92558
364.00,84.69521
365.00,84.58729
366.00,84.59632
367.00,84.71186
368.00,84.74846
369.00,84.60906
370.00,84.57249
371.00,84.63196
372.00,84.72904
373.00,84.67841
374.00,84.75267
375.00,84.72539
376.00,84.53320
377.00,84.66038
378.00,84.74057
379.00,84.80284
380.00,84.87396
381.00,84.88962
382.00,84.74660
383.00,84.63188
384.00,84.77776
385.00,84.74718
386.00,84.79459
387.00,84.75257
388.00,84.95768
389.00,84.57260
390.00,84.80217
391.00,84.79087
392.00,84.90165
393.00,84.65841
394.00,84.88416
395.00,84.70017
396.00,84.79025
397.00,84.80863
398.00,84.86566
399.00,84.93955
400.00,84.90028
401.00,84.81867
402.00,84.75025
403.00,84.82950
404.00,84.84997
405.00,84.91184
406.00,84.89909
407.00,84.91920
408.00,84.79683
409.00,84.82391
410.00,84.79805
411.00,84.87367
412.00,84.92538
413.00,84.86410
414.00,84.83621
415.00,84.98568
416.00,84.90345
417.00,84.80303
418.00,84.90173
419.00,84.91739
420.00,84.98453
421.00,84.98859
422.00,84.90688
423.00,84.89336
424.00,84.96349
425.00,84.95061
426.00,85.02553
427.00,84.97097
428.00,85.03681
429.00,84.99154
430.00,84.90857
431.00,85.00642
432.00,85.00472
433.00,85.02346
434.00,85.00309
435.00,85.06508
436.00,85.04538
437.00,85.03904
438.00,84.99354
439.00,85.04034
440.00,85.07857
441.00,85.06091
442.00,85.04209
443.00,85.03650
444.00,84.96945
445.00,85.09277
446.00,85.04915
447.00,85.03638
448.00,85.10187
449.00,85.14792
450.00,85.11384
451.00,85.04316
452.00,85.06939
453.00,85.12421
454.00,85.02438
455.00,85.14429
456.00,85.14462
457.00,85.08642
458.00,85.12959
459.00,85.12906
460.00,85.09589
461.00,85.07693
462.00,85.13138
463.00,85.13645
464.00,85.12214
465.00,85.07585
466.00,85.14872
467.00,85.18618
468.00,85.17650
469.00,85.18736
470.00,85.21451
471.00,85.16562
472.00,85.13100
473.00,85.27579
474.00,85.17655
475.00,85.14678
476.00,85.13348
477.00,85.17033
478.00,85.15701
479.00,85.12897
480.00,85.13995
481.00,85.08509
482.00,85.14796
483.00,85.09569
484.00,85.11056
485.00,85.09494
486.00,85.08341
487.00,85.14175
488.00,85.02626
489.00,85.11682
490.00,85.10439
491.00,85.08022
492.00,85.07788
493.00,85.07046
494.00,85.04333
495.00,85.12502
496.00,85.03817
497.00,85.07639
498.00,85.12360
499.00,85.12355
500.00,85.12542
501.00,85.01336
502.00,85.10772
503.00,85.10067
504.00,85.15767
505.00,85.08220
506.00,85.10106
507.00,85.14316
508.00,85.11562
509.00,85.15921
510.00,85.05588
511.00,85.14808
512.00,85.12276
513.00,85.07494
514.00,85.15620
515.00,85.12808
516.00,85.14313
517.00,85.15445
518.00,85.23067
519.00,85.14278
520.00,85.12520
521.00,85.19996
522.00,85.22446
523.00,85.18885
524.00,85.11856
525.00,85.19943
526.00,85.14853
527.00,85.22764
528.00,85.20603
529.00,85.17820
530.00,85.11841
531.00,85.17084
532.00,85.23155
533.00,85.23222
534.00,85.21153
535.00,85.17448
536.00,85.19299
537.00,85.06929
538.00,85.03954
539.00,85.08608
540.00,85.09164
541.00,85.04444
542.00,85.00879
543.00,85.00713
544.00,85.05580
545.00,85.05342
546.00,85.07007
547.00,85.08658
548.00,85.08394
549.00,85.02615
550.00,85.06239
551.00,85.04965
552.00,85.09258
553.00,85.10433
554.00,85.09868
555.00,85.12633
556.00,85.14784
557.00,85.07218
558.00,85.09039
559.00,85.16570
560.00,85.10875
561.00,85.16257
562.00,85.09806
563.00,85.16145
564.00,85.18567
565.00,85.22751
566.00,85.17628
567.00,85.25492
568.00,85.24359
569.00,85.23290
570.00,85.26227
571.00,85.18482
572.00,85.19633
573.00,85.21054
574.00,85.19466
575.00,85.10942
576.00,85.13722
577.00,85.13935
578.00,85.18587
579.00,85.09620
580.00,85.05360
581.00,85.04987
582.00,85.05129
583.00,84.99843
584.00,85.01779
585.00,85.06300
586.00,84.96568
587.00,85.02487
588.00,85.03355
589.00,85.01823
590.00,84.99433
591.00,85.02863
592.00,85.02982
593.00,84.99054
594.00,85.02783
595.00,84.93209
596.00,85.10582
597.00,84.97769
598.00,85.08443
599.00,85.02858
600.00,85.02756
601.00,85.08967
602.00,85.07750
603.00,85.09447
604.00,85.06236
605.00,85.05011
606.00,85.05402
607.00,85.03202
608.00,85.10246
609.00,85.07345
610.00,85.08977
611.00,85.06524
612.00,85.09800
613.00,85.11285
614.00,85.17451
615.00,85.10716
616.00,85.13229
617.00,85.11105
618.00,85.16085
619.00,85.17754
620.00,85.17110
621.00,85.18762
622.00,85.17468
623.00,85.16740
624.00,85.14127
625.00,85.20232
626.00,85.17818
627.00,85.12529
628.00,85.16945
629.00,85.18127
630.00,85.21742
631.00,85.20851
632.00,85.20593
633.00,85.11774
634.00,85.17999
635.00,85.21405
636.00,85.18583
637.00,85.16805
638.00,85.20664
639.00,85.18398
640.00,85.16202
641.00,85.17104
642.00,85.17061
643.00,85.16909
644.00,85.24216
645.00,85.18717
646.00,85.19087
647.00,85.22823
648.00,85.26648
649.00,85.26385
650.00,85.30115
651.00,85.29816
652.00,85.25401
653.00,85.23445
654.00,85.30530
655.00,85.38527
656.00,85.26186
657.00,85.27733
658.00,85.32553
659.00,85.30465
660.00,85.26433
661.00,85.38838
662.00,85.27105
663.00,85.34197
664.00,85.35566
665.00,85.36860
666.00,85.38401
667.00,85.31375
668.00,85.40092
669.00,85.40255
670.00,85.42054
671.00,85.34667
672.00,85.36251
673.00,85.55709
674.00,85.44765
675.00,85.47552
676.00,85.52533
677.00,85.44582
678.00,85.35327
679.00,85.38130
680.00,85.47642
681.00,85.37950
682.00,85.35203
683.00,85.45815
684.00,85.46572
685.00,85.42297
686.00,85.56461
687.00,85.42663
688.00,85.57417
689.00,85.50645
690.00,85.52130
691.00,85.69783
692.00,85.57510
693.00,85.64815
694.00,85.54769
695.00,85.74434
696.00,85.70580
697.00,85.83478
698.00,85.78770
699.00,85.65052
700.00,85.77964
701.00,85.66995
702.00,85.74879
703.00,85.70638
704.00,85.80811
705.00,85.89407
706.00,85.89562
707.00,85.92412
708.00,85.93029
709.00,85.85420
710.00,85.99751
711.00,86.00428
712.00,86.06055
713.00,85.97196
714.00,85.96651
715.00,86.01512
716.00,85.98987
717.00,86.06917
718.00,86.14452
719.00,86.06542
720.00,86.28129
721.00,86.03156
722.00,86.05938
723.00,86.25913
724.00,86.20747
725.00,86.13693
726.00,86.26488
727.00,86.28949
728.00,86.11630
729.00,86.42526
730.00,86.34425
731.00,86.25162
732.00,86.25192
733.00,86.38585
734.00,86.24425
735.00,86.44645
736.00,86.58000
737.00,86.52145
738.00,86.20347
739.00,86.30809
740.00,86.27185
741.00,86.29873
742.00,86.29209
743.00,86.41365
744.00,86.37515
745.00,86.37908
746.00,86.32023
747.00,86.50603
748.00,86.59874
749.00,86.39504
750.00,86.23012
751.00,86.46286
752.00,86.49102
753.00,86.40756
754.00,86.49232
755.00,86.51897
756.00,86.53649
757.00,86.43020
758.00,86.30801
759.00,86.58497
760.00,86.49327
761.00,86.35980
762.00,86.76532
763.00,86.59011
764.00,86.53727
765.00,86.61938
766.00,86.70016
767.00,86.59931
768.00,86.72841
769.00,86.72468
770.00,86.79138
771.00,86.77385
772.00,86.84063
773.00,86.61856
774.00,86.62182
775.00,86.71695
776.00,86.60644
777.00,86.95865
778.00,86.60779
779.00,86.66347
780.00,86.82814
781.00,86.76831
782.00,86.70641
783.00,86.73250
784.00,86.74162
785.00,86.85520
786.00,86.90532
787.00,86.71660
788.00,86.83748
789.00,86.65243
790.00,86.77439
791.00,86.60216
792.00,86.91853
793.00,86.75041
794.00,86.65170
795.00,86.68983
796.00,86.88323
797.00,86.80752
798.00,87.06629
799.00,86.91871
800.00,86.75613
