"DPSubstrateStandardHolder - RawData"
"Wavelength nm.","T%"
190.00,79.89974
191.00,79.27263
192.00,80.11712
193.00,83.74932
194.00,79.94274
195.00,78.65152
196.00,77.42651
197.00,84.27098
198.00,78.88740
199.00,83.36465
200.00,80.36821
201.00,81.79323
202.00,80.31549
203.00,80.49619
204.00,77.26206
205.00,80.41177
206.00,79.75675
207.00,80.89554
208.00,80.78562
209.00,81.14694
210.00,81.26935
211.00,79.86567
212.00,83.05948
213.00,80.82455
214.00,81.18040
215.00,83.09284
216.00,82.87129
217.00,82.09674
218.00,80.82033
219.00,82.12855
220.00,81.68465
221.00,82.45857
222.00,82.30783
223.00,81.78151
224.00,82.67686
225.00,82.11603
226.00,81.81261
227.00,83.46688
228.00,82.74994
229.00,82.93977
230.00,82.12213
231.00,82.16905
232.00,82.80134
233.00,82.46519
234.00,82.19559
235.00,82.60888
236.00,83.30204
237.00,83.43569
238.00,82.94222
239.00,83.01855
240.00,83.49016
241.00,82.97175
242.00,83.59646
243.00,83.69370
244.00,83.73461
245.00,83.27711
246.00,83.79552
247.00,83.65914
248.00,83.88254
249.00,83.88454
250.00,84.03431
251.00,84.26514
252.00,83.49349
253.00,83.87266
254.00,83.75518
255.00,83.68834
256.00,83.60636
257.00,83.63087
258.00,83.77557
259.00,83.95029
260.00,83.65856
261.00,83.97711
262.00,84.27179
263.00,83.21176
264.00,83.88288
265.00,84.16104
266.00,84.12765
267.00,83.96843
268.00,83.99681
269.00,84.64729
270.00,83.65900
271.00,84.15104
272.00,84.64170
273.00,84.29430
274.00,84.06225
275.00,84.33930
276.00,84.57691
277.00,84.17491
278.00,83.93012
279.00,84.32814
280.00,84.14050
281.00,83.59864
282.00,84.60691
283.00,84.70564
284.00,84.57729
285.00,84.68803
286.00,84.62729
287.00,84.25647
288.00,84.29371
289.00,84.59948
290.00,84.62536
291.00,84.56667
292.00,84.54331
293.00,84.61081
294.00,84.15027
295.00,84.71456
296.00,84.36744
297.00,84.56594
298.00,84.79574
299.00,84.04071
300.00,84.84173
301.00,84.52119
302.00,84.07414
303.00,84.86412
304.00,84.77069
305.00,84.90447
306.00,84.58922
307.00,84.74216
308.00,85.33720
309.00,84.85487
310.00,84.33737
311.00,84.55348
312.00,84.92396
313.00,84.68191
314.00,84.85748
315.00,84.85798
316.00,84.70498
317.00,84.67527
318.00,84.53252
319.00,84.73252
320.00,85.61960
321.00,84.81393
322.00,84.89839
323.00,85.04007
324.00,85.29941
325.00,85.42176
326.00,84.52060
327.00,85.48492
328.00,84.83803
329.00,85.26430
330.00,84.56506
331.00,85.22717
332.00,85.20977
333.00,84.73810
334.00,85.13513
335.00,85.56172
336.00,85.02837
337.00,84.95695
338.00,85.24255
339.00,85.14588
340.00,84.85276
341.00,85.21842
342.00,85.23058
343.00,85.32484
344.00,85.03884
345.00,85.54757
346.00,84.76265
347.00,84.97614
348.00,85.09053
349.00,84.99454
350.00,85.33651
351.00,85.45804
352.00,85.69421
353.00,85.31917
354.00,85.21087
355.00,85.04944
356.00,85.26971
357.00,85.49730
358.00,84.93950
359.00,85.50999
360.00,85.53704
361.00,85.29513
362.00,85.40023
363.00,85.30148
364.00,85.23842
365.00,85.22599
366.00,85.46126
367.00,85.40629
368.00,85.60789
369.00,85.52361
370.00,85.18549
371.00,85.36457
372.00,85.25525
373.00,85.21937
374.00,85.31633
375.00,85.52197
376.00,85.26216
377.00,85.37285
378.00,85.40699
379.00,85.29035
380.00,85.45005
381.00,85.38449
382.00,85.34104
383.00,85.37520
384.00,85.60614
385.00,85.27467
386.00,85.57820
387.00,85.26571
388.00,85.44811
389.00,85.30641
390.00,85.44015
391.00,85.37803
392.00,85.40975
393.00,85.23939
394.00,85.37156
395.00,85.43941
396.00,85.53264
397.00,85.41099
398.00,85.27544
399.00,85.52369
400.00,85.53557
401.00,85.26483
402.00,85.46613
403.00,85.44702
404.00,85.51700
405.00,85.49531
406.00,85.51326
407.00,85.48191
408.00,85.48746
409.00,85.29789
410.00,85.45749
411.00,85.40882
412.00,85.53857
413.00,85.65140
414.00,85.31002
415.00,85.48208
416.00,85.48360
417.00,85.54043
418.00,85.46016
419.00,85.45814
420.00,85.62789
421.00,85.47317
422.00,85.61357
423.00,85.63121
424.00,85.59963
425.00,85.61459
426.00,85.50794
427.00,85.45229
428.00,85.61906
429.00,85.54829
430.00,85.69088
431.00,85.55336
432.00,85.43767
433.00,85.54360
434.00,85.74200
435.00,85.60862
436.00,85.57961
437.00,85.53149
438.00,85.62840
439.00,85.61537
440.00,85.61300
441.00,85.56136
442.00,85.49135
443.00,85.32229
444.00,85.64850
445.00,85.50041
446.00,85.74256
447.00,85.67222
448.00,85.64709
449.00,85.65072
450.00,85.67122
451.00,85.63640
452.00,85.55709
453.00,85.59130
454.00,85.62483
455.00,85.61299
456.00,85.55527
457.00,85.64152
458.00,85.69383
459.00,85.72125
460.00,85.63429
461.00,85.56770
462.00,85.57193
463.00,85.57652
464.00,85.51263
465.00,85.69974
466.00,85.67347
467.00,85.67782
468.00,85.68131
469.00,85.72536
470.00,85.64608
471.00,85.74529
472.00,85.72838
473.00,85.71413
474.00,85.73154
475.00,85.62135
476.00,85.75928
477.00,85.67690
478.00,85.67601
479.00,85.64266
480.00,85.66552
481.00,85.78647
482.00,85.69204
483.00,85.76683
484.00,85.56283
485.00,85.83553
486.00,85.79150
487.00,85.64445
488.00,85.75868
489.00,85.81660
490.00,85.59215
491.00,85.60951
492.00,85.66499
493.00,85.77763
494.00,85.74360
495.00,85.75039
496.00,85.67318
497.00,85.69332
498.00,85.61022
499.00,85.85544
500.00,85.79749
501.00,85.69456
502.00,85.71883
503.00,85.76529
504.00,85.80624
505.00,85.74127
506.00,85.76720
507.00,85.72704
508.00,85.75864
509.00,85.87137
510.00,85.67865
511.00,85.75749
512.00,85.73562
513.00,85.84591
514.00,85.88852
515.00,85.69282
516.00,85.80532
517.00,85.88184
518.00,85.74339
519.00,85.83521
520.00,85.62367
521.00,85.74196
522.00,85.83819
523.00,85.79080
524.00,85.70312
525.00,85.76558
526.00,85.87655
527.00,85.73467
528.00,85.83270
529.00,85.78832
530.00,85.73487
531.00,85.68054
532.00,85.79777
533.00,85.89953
534.00,85.87559
535.00,85.82855
536.00,85.73538
537.00,85.83248
538.00,85.85236
539.00,85.76331
540.00,85.74317
541.00,85.73841
542.00,85.91177
543.00,85.96434
544.00,85.90796
545.00,85.76480
546.00,85.86299
547.00,85.88670
548.00,85.80530
549.00,85.76023
550.00,85.74273
551.00,85.90115
552.00,85.82017
553.00,85.84664
554.00,85.88923
555.00,85.79292
556.00,85.88751
557.00,85.78604
558.00,85.78358
559.00,85.76831
560.00,85.72282
561.00,85.75497
562.00,85.87735
563.00,85.96818
564.00,85.98801
565.00,85.81110
566.00,86.00033
567.00,85.96321
568.00,85.91771
569.00,85.78264
570.00,85.90471
571.00,85.80613
572.00,85.88935
573.00,85.83040
574.00,85.81063
575.00,85.88482
576.00,85.92105
577.00,85.90993
578.00,85.95337
579.00,85.90057
580.00,85.96837
581.00,85.70444
582.00,85.97047
583.00,85.95621
584.00,85.86565
585.00,85.99762
586.00,85.79296
587.00,86.05825
588.00,85.85578
589.00,85.96523
590.00,85.97351
591.00,85.99002
592.00,85.96561
593.00,85.96505
594.00,85.95043
595.00,85.89867
596.00,85.72690
597.00,86.10207
598.00,85.99782
599.00,85.98405
600.00,85.86466
601.00,85.91505
602.00,85.81201
603.00,85.96936
604.00,85.95668
605.00,85.85119
606.00,86.01198
607.00,85.79093
608.00,85.95350
609.00,85.99899
610.00,85.93816
611.00,85.93094
612.00,86.01003
613.00,85.87800
614.00,85.88203
615.00,85.91706
616.00,85.99271
617.00,86.06034
618.00,85.95661
619.00,85.94009
620.00,85.97524
621.00,86.09757
622.00,85.87192
623.00,85.96431
624.00,85.85829
625.00,86.01815
626.00,85.86178
627.00,85.89779
628.00,85.97692
629.00,86.05900
630.00,86.06191
631.00,86.08062
632.00,85.88728
633.00,86.01353
634.00,85.85894
635.00,86.08234
636.00,86.01077
637.00,85.94076
638.00,85.88653
639.00,85.92638
640.00,86.14033
641.00,86.07379
642.00,85.99750
643.00,86.01234
644.00,86.02146
645.00,86.09111
646.00,85.98822
647.00,85.99275
648.00,85.97594
649.00,85.86510
650.00,86.10335
651.00,86.08441
652.00,85.93168
653.00,86.03446
654.00,85.86668
655.00,85.94123
656.00,85.87927
657.00,85.90020
658.00,86.05549
659.00,86.13698
660.00,86.01265
661.00,85.78357
662.00,86.01211
663.00,86.10126
664.00,86.18476
665.00,85.92642
666.00,85.93597
667.00,85.90960
668.00,85.98232
669.00,85.90115
670.00,86.17008
671.00,86.06735
672.00,86.01434
673.00,85.88557
674.00,85.97127
675.00,85.91633
676.00,86.00429
677.00,85.99616
678.00,86.30121
679.00,85.95505
680.00,86.17886
681.00,86.11049
682.00,86.10682
683.00,85.79067
684.00,86.08032
685.00,85.76434
686.00,85.95597
687.00,85.92364
688.00,86.18822
689.00,86.05154
690.00,86.23045
691.00,86.21177
692.00,86.21448
693.00,85.99493
694.00,86.01120
695.00,85.89611
696.00,85.93280
697.00,86.19087
698.00,86.11295
699.00,85.80723
700.00,86.09278
701.00,86.08761
702.00,85.71262
703.00,85.96437
704.00,85.89981
705.00,85.88778
706.00,85.96074
707.00,85.84621
708.00,86.21212
709.00,86.24016
710.00,85.96519
711.00,86.09473
712.00,85.73962
713.00,86.00693
714.00,85.95144
715.00,85.88643
716.00,86.21350
717.00,85.85488
718.00,85.96281
719.00,86.31577
720.00,86.31437
721.00,86.04929
722.00,85.98281
723.00,86.15578
724.00,85.68031
725.00,86.23636
726.00,86.09225
727.00,86.10600
728.00,85.76474
729.00,86.23878
730.00,85.98110
731.00,86.20226
732.00,86.02597
733.00,86.36556
734.00,86.11202
735.00,85.84114
736.00,85.98701
737.00,85.72418
738.00,85.69872
739.00,86.49552
740.00,86.00148
741.00,86.14870
742.00,86.27102
743.00,85.87286
744.00,86.11776
745.00,85.87213
746.00,85.99802
747.00,86.02803
748.00,86.21317
749.00,86.14884
750.00,86.28776
751.00,86.06760
752.00,86.11413
753.00,86.03866
754.00,85.81282
755.00,86.15846
756.00,86.30050
757.00,85.76863
758.00,86.06786
759.00,86.03349
760.00,85.87515
761.00,86.52123
762.00,85.96315
763.00,86.38396
764.00,86.36787
765.00,85.76447
766.00,85.99106
767.00,86.45958
768.00,85.79976
769.00,86.61590
770.00,86.52114
771.00,86.33001
772.00,85.95358
773.00,86.25719
774.00,85.81822
775.00,86.32747
776.00,86.23430
777.00,86.12825
778.00,86.52620
779.00,86.13441
780.00,85.88448
781.00,86.54886
782.00,86.11324
783.00,86.04812
784.00,86.33873
785.00,85.88780
786.00,86.52741
787.00,86.52193
788.00,86.44518
789.00,86.05163
790.00,86.30089
791.00,86.06116
792.00,85.59771
793.00,86.33080
794.00,85.89529
795.00,86.40125
796.00,85.73694
797.00,86.47076
798.00,85.81916
799.00,85.96461
800.00,86.04951
