"DPSahhpirePaint - RawData"
"Wavelength nm.","T%"
200.00,79.41712
201.00,80.44328
202.00,80.78227
203.00,82.66253
204.00,83.37891
205.00,78.81598
206.00,78.91657
207.00,79.55269
208.00,80.57166
209.00,82.33108
210.00,80.38403
211.00,81.01876
212.00,81.47925
213.00,80.87028
214.00,81.38087
215.00,80.56188
216.00,81.56934
217.00,81.68916
218.00,80.53520
219.00,81.86874
220.00,80.22621
221.00,82.95631
222.00,82.05081
223.00,81.95004
224.00,82.91574
225.00,82.82924
226.00,83.25676
227.00,82.48150
228.00,83.53915
229.00,82.78604
230.00,82.45737
231.00,83.73837
232.00,83.07143
233.00,82.70252
234.00,83.18979
235.00,82.27212
236.00,83.11290
237.00,83.65895
238.00,82.81620
239.00,83.45955
240.00,82.91657
241.00,83.06934
242.00,82.84495
243.00,83.29561
244.00,83.11800
245.00,83.57092
246.00,83.07151
247.00,83.29282
248.00,83.41460
249.00,83.41581
250.00,83.63881
251.00,83.44268
252.00,82.79493
253.00,84.25149
254.00,83.71165
255.00,83.78205
256.00,83.70844
257.00,83.78443
258.00,84.08865
259.00,83.99294
260.00,83.98817
261.00,83.55685
262.00,83.53059
263.00,83.86611
264.00,84.05502
265.00,83.48759
266.00,83.78054
267.00,83.91656
268.00,84.05365
269.00,83.94477
270.00,83.79682
271.00,84.34751
272.00,84.29440
273.00,84.41513
274.00,83.85704
275.00,84.39018
276.00,84.27590
277.00,84.42244
278.00,84.40956
279.00,84.79443
280.00,84.67638
281.00,84.34849
282.00,83.91108
283.00,84.21537
284.00,84.06821
285.00,84.39972
286.00,84.20753
287.00,84.47255
288.00,84.23569
289.00,84.49292
290.00,84.25672
291.00,84.67186
292.00,84.76698
293.00,84.54576
294.00,84.53259
295.00,84.55420
296.00,84.23136
297.00,85.08051
298.00,84.64218
299.00,84.61283
300.00,84.54807
301.00,84.71147
302.00,84.91572
303.00,84.30727
304.00,85.18420
305.00,84.19266
306.00,84.89021
307.00,84.56674
308.00,84.67786
309.00,84.60468
310.00,84.91485
311.00,84.92954
312.00,84.99033
313.00,84.77105
314.00,85.11589
315.00,84.89440
316.00,85.11654
317.00,85.03721
318.00,84.83994
319.00,85.12915
320.00,84.91859
321.00,84.86738
322.00,85.32318
323.00,85.09372
324.00,84.93961
325.00,84.48670
326.00,84.77759
327.00,84.73568
328.00,85.29976
329.00,85.02868
330.00,84.66197
331.00,84.86328
332.00,85.21782
333.00,84.83975
334.00,85.20331
335.00,84.74292
336.00,84.99086
337.00,84.73029
338.00,84.84721
339.00,84.96765
340.00,85.27499
341.00,85.04817
342.00,85.13453
343.00,85.55840
344.00,84.85857
345.00,84.94636
346.00,84.58189
347.00,84.80145
348.00,84.86720
349.00,85.11661
350.00,85.14315
351.00,85.03401
352.00,85.33174
353.00,84.93484
354.00,85.14898
355.00,85.26418
356.00,85.31719
357.00,84.94896
358.00,85.32535
359.00,85.08660
360.00,85.29107
361.00,85.03149
362.00,84.93420
363.00,85.06976
364.00,85.01387
365.00,85.21108
366.00,85.17997
367.00,85.22824
368.00,85.38343
369.00,85.24697
370.00,85.26679
371.00,85.00748
372.00,85.05093
373.00,85.36941
374.00,85.37176
375.00,84.95222
376.00,85.21231
377.00,85.08990
378.00,85.24811
379.00,85.28515
380.00,85.29693
381.00,85.01005
382.00,85.22499
383.00,85.49929
384.00,85.22472
385.00,85.25931
386.00,85.41797
387.00,85.18815
388.00,85.37012
389.00,85.27735
390.00,85.39153
391.00,85.25741
392.00,85.19634
393.00,85.37061
394.00,85.49378
395.00,85.30719
396.00,85.18911
397.00,85.33311
398.00,85.35631
399.00,85.33377
400.00,85.35590
401.00,85.29543
402.00,85.37508
403.00,85.14939
404.00,85.40513
405.00,85.42895
406.00,85.33949
407.00,85.30744
408.00,85.28912
409.00,85.49988
410.00,85.28105
411.00,85.26055
412.00,85.40800
413.00,85.44561
414.00,85.24000
415.00,85.38949
416.00,85.22368
417.00,85.29816
418.00,85.23529
419.00,85.29114
420.00,85.40803
421.00,85.33500
422.00,85.37787
423.00,85.34183
424.00,85.22891
425.00,85.47832
426.00,85.50642
427.00,85.53584
428.00,85.38824
429.00,85.55707
430.00,85.52046
431.00,85.40134
432.00,85.38428
433.00,85.52334
434.00,85.49091
435.00,85.37445
436.00,85.51193
437.00,85.43350
438.00,85.50507
439.00,85.58148
440.00,85.39039
441.00,85.44142
442.00,85.39051
443.00,85.59830
444.00,85.51953
445.00,85.47750
446.00,85.50115
447.00,85.49268
448.00,85.44981
449.00,85.65109
450.00,85.48593
451.00,85.53905
452.00,85.43848
453.00,85.43722
454.00,85.62180
455.00,85.70300
456.00,85.64289
457.00,85.52322
458.00,85.55984
459.00,85.60324
460.00,85.55353
461.00,85.63607
462.00,85.53611
463.00,85.55267
464.00,85.61630
465.00,85.57221
466.00,85.58109
467.00,85.66568
468.00,85.55993
469.00,85.59312
470.00,85.63719
471.00,85.51187
472.00,85.50640
473.00,85.46224
474.00,85.64042
475.00,85.56579
476.00,85.47863
477.00,85.58976
478.00,85.56712
479.00,85.51274
480.00,85.58651
481.00,85.53853
482.00,85.59004
483.00,85.69753
484.00,85.57965
485.00,85.62357
486.00,85.64968
487.00,85.70561
488.00,85.45825
489.00,85.58716
490.00,85.57660
491.00,85.64150
492.00,85.65635
493.00,85.65494
494.00,85.44937
495.00,85.58950
496.00,85.67582
497.00,85.64680
498.00,85.58034
499.00,85.52163
500.00,85.53361
501.00,85.59721
502.00,85.60860
503.00,85.64742
504.00,85.56281
505.00,85.65627
506.00,85.63201
507.00,85.50630
508.00,85.76542
509.00,85.63508
510.00,85.53545
511.00,85.67546
512.00,85.64095
513.00,85.70449
514.00,85.63235
515.00,85.61743
516.00,85.67450
517.00,85.61119
518.00,85.73052
519.00,85.61425
520.00,85.66952
521.00,85.70940
522.00,85.70102
523.00,85.49397
524.00,85.73930
525.00,85.52629
526.00,85.83270
527.00,85.67515
528.00,85.59110
529.00,85.75873
530.00,85.64271
531.00,85.77862
532.00,85.51238
533.00,85.56661
534.00,85.67569
535.00,85.50089
536.00,85.66031
537.00,85.70099
538.00,85.66641
539.00,85.72237
540.00,85.71049
541.00,85.75121
542.00,85.73538
543.00,85.78098
544.00,85.79004
545.00,85.70952
546.00,85.78642
547.00,85.67154
548.00,85.67556
549.00,85.75932
550.00,85.60455
551.00,85.70141
552.00,85.81685
553.00,85.84465
554.00,85.76776
555.00,85.72991
556.00,85.75113
557.00,85.80852
558.00,85.78163
559.00,85.74551
560.00,85.69247
561.00,85.79810
562.00,85.81885
563.00,85.80971
564.00,85.75677
565.00,85.60552
566.00,85.77459
567.00,85.69345
568.00,85.70278
569.00,85.68441
570.00,85.71333
571.00,85.73413
572.00,85.82493
573.00,85.66440
574.00,85.67514
575.00,85.84269
576.00,85.76331
577.00,85.73860
578.00,85.76688
579.00,85.86781
580.00,85.74687
581.00,85.74815
582.00,85.78496
583.00,85.87792
584.00,85.82478
585.00,85.82717
586.00,85.77926
587.00,85.87940
588.00,85.66896
589.00,85.82125
590.00,85.74177
591.00,85.71569
592.00,85.84905
593.00,85.81256
594.00,85.90381
595.00,85.68779
596.00,85.77734
597.00,85.73842
598.00,85.79416
599.00,85.75902
600.00,85.81308
601.00,85.78343
602.00,85.86401
603.00,85.75256
604.00,85.75481
605.00,85.76459
606.00,85.77226
607.00,85.64511
608.00,85.63572
609.00,85.81837
610.00,85.88121
611.00,85.73140
612.00,85.90446
613.00,85.73731
614.00,85.76618
615.00,85.77886
616.00,85.90996
617.00,85.76614
618.00,85.89004
619.00,85.73493
620.00,85.79956
621.00,85.73368
622.00,85.96277
623.00,85.88099
624.00,85.91945
625.00,85.82989
626.00,85.87889
627.00,85.88134
628.00,85.83736
629.00,85.83873
630.00,85.89447
631.00,85.84321
632.00,85.76895
633.00,85.88476
634.00,85.90313
635.00,85.66754
636.00,85.83262
637.00,85.78331
638.00,85.76087
639.00,85.78592
640.00,85.88867
641.00,85.84363
642.00,85.85465
643.00,85.85338
644.00,85.93023
645.00,85.74470
646.00,85.92575
647.00,85.85823
648.00,85.81820
649.00,85.95442
650.00,85.82119
651.00,85.86413
652.00,85.77014
653.00,85.78630
654.00,85.97462
655.00,85.84106
656.00,85.73643
657.00,85.72893
658.00,85.91260
659.00,85.95247
660.00,85.98784
661.00,85.90071
662.00,85.91633
663.00,86.07756
664.00,85.83376
665.00,85.93876
666.00,85.68537
667.00,85.87354
668.00,86.01964
669.00,85.99576
670.00,85.99833
671.00,85.91694
672.00,86.02794
673.00,85.91343
674.00,85.84570
675.00,85.89642
676.00,85.92503
677.00,86.01805
678.00,85.87447
679.00,85.92807
680.00,85.86656
681.00,85.94944
682.00,86.12110
683.00,85.84418
684.00,85.87169
685.00,85.94617
686.00,85.91816
687.00,85.68746
688.00,85.82284
689.00,85.89284
690.00,85.79886
691.00,85.98469
692.00,86.00916
693.00,86.07308
694.00,85.87115
695.00,85.93204
696.00,85.94110
697.00,85.82068
698.00,85.76911
699.00,86.04171
700.00,85.83677
701.00,86.13475
702.00,85.98451
703.00,85.91683
704.00,85.95666
705.00,85.83761
706.00,85.88559
707.00,85.97358
708.00,86.04606
709.00,86.10704
710.00,86.01643
711.00,86.07525
712.00,85.95592
713.00,85.98610
714.00,86.13409
715.00,86.07290
716.00,86.07233
717.00,85.71993
718.00,86.12559
719.00,86.09590
720.00,85.97733
721.00,85.91350
722.00,86.05301
723.00,85.75351
724.00,85.82151
725.00,86.00025
726.00,86.02476
727.00,86.14864
728.00,86.04528
729.00,85.73295
730.00,85.92077
731.00,86.01988
732.00,86.12831
733.00,85.84408
734.00,86.00982
735.00,86.21662
736.00,86.15052
737.00,85.66055
738.00,86.06320
739.00,86.34485
740.00,85.83378
741.00,85.91244
742.00,85.60414
743.00,86.03710
744.00,86.17595
745.00,86.11454
746.00,85.69475
747.00,86.13692
748.00,85.94397
749.00,86.08929
750.00,86.11877
751.00,86.52506
752.00,86.04669
753.00,86.06804
754.00,86.09817
755.00,85.87308
756.00,86.01974
757.00,85.97734
758.00,85.92538
759.00,85.59774
760.00,85.89294
761.00,86.02535
762.00,86.28426
763.00,85.94766
764.00,86.45397
765.00,86.54506
766.00,85.99477
767.00,85.93525
768.00,86.14346
769.00,86.12612
770.00,85.88857
771.00,86.26907
772.00,85.73397
773.00,85.39751
774.00,86.33631
775.00,86.14227
776.00,86.12177
777.00,85.97146
778.00,86.23598
779.00,85.48295
780.00,85.65028
781.00,86.14172
782.00,85.49833
783.00,85.92287
784.00,85.40469
785.00,85.92321
786.00,85.68970
787.00,85.96022
788.00,86.72785
789.00,86.29254
790.00,86.57572
791.00,85.67112
792.00,86.04924
793.00,85.85010
794.00,86.37750
795.00,86.20236
796.00,85.86954
797.00,85.61857
798.00,85.75459
799.00,85.98860
800.00,86.07143
