"GaNTrans160623 - RawData"
"Wavelength nm.","T%"
190.00,0.58775
191.00,0.94680
192.00,1.66843
193.00,1.04170
194.00,1.18986
195.00,0.93166
196.00,1.03185
197.00,0.88833
198.00,0.87891
199.00,0.74452
200.00,0.81637
201.00,0.57998
202.00,0.60588
203.00,0.60893
204.00,0.59860
205.00,0.58397
206.00,0.50154
207.00,0.36340
208.00,0.44767
209.00,0.33043
210.00,0.37901
211.00,0.31845
212.00,0.29403
213.00,0.31802
214.00,0.28368
215.00,0.30462
216.00,0.29572
217.00,0.26862
218.00,0.27419
219.00,0.27555
220.00,0.31830
221.00,0.30464
222.00,0.31726
223.00,0.33268
224.00,0.29447
225.00,0.31224
226.00,0.32782
227.00,0.31594
228.00,0.32111
229.00,0.30012
230.00,0.27280
231.00,0.24497
232.00,0.26729
233.00,0.23092
234.00,0.22564
235.00,0.23430
236.00,0.22834
237.00,0.20427
238.00,0.18811
239.00,0.18212
240.00,0.17450
241.00,0.15745
242.00,0.15415
243.00,0.15496
244.00,0.13942
245.00,0.12339
246.00,0.12216
247.00,0.12201
248.00,0.11952
249.00,0.10634
250.00,0.11957
251.00,0.10658
252.00,0.09589
253.00,0.09805
254.00,0.09730
255.00,0.10281
256.00,0.10168
257.00,0.09342
258.00,0.09725
259.00,0.08498
260.00,0.09291
261.00,0.09687
262.00,0.09888
263.00,0.09629
264.00,0.09690
265.00,0.09306
266.00,0.09774
267.00,0.09051
268.00,0.09189
269.00,0.08453
270.00,0.09465
271.00,0.08783
272.00,0.08389
273.00,0.08050
274.00,0.07903
275.00,0.08063
276.00,0.08361
277.00,0.07341
278.00,0.07591
279.00,0.08032
280.00,0.07344
281.00,0.07484
282.00,0.07674
283.00,0.06629
284.00,0.06814
285.00,0.06378
286.00,0.06515
287.00,0.05585
288.00,0.06545
289.00,0.06126
290.00,0.06650
291.00,0.05587
292.00,0.05753
293.00,0.05311
294.00,0.04950
295.00,0.04812
296.00,0.04804
297.00,0.04922
298.00,0.05448
299.00,0.04394
300.00,0.04166
301.00,0.03620
302.00,0.03720
303.00,0.03466
304.00,0.03724
305.00,0.03462
306.00,0.02612
307.00,0.02903
308.00,0.03414
309.00,0.02181
310.00,0.02825
311.00,0.02900
312.00,0.02580
313.00,0.03143
314.00,0.02663
315.00,0.02382
316.00,0.02342
317.00,0.01390
318.00,0.02441
319.00,0.01997
320.00,0.02107
321.00,0.02044
322.00,0.02151
323.00,0.01237
324.00,0.02309
325.00,0.02266
326.00,0.02273
327.00,0.02072
328.00,0.02568
329.00,0.02566
330.00,0.02277
331.00,0.01951
332.00,0.02854
333.00,0.02771
334.00,0.03166
335.00,0.02158
336.00,0.02405
337.00,0.02568
338.00,0.03016
339.00,0.03446
340.00,0.03035
341.00,0.02857
342.00,0.03164
343.00,0.02996
344.00,0.03793
345.00,0.03275
346.00,0.03171
347.00,0.04070
348.00,0.03842
349.00,0.03063
350.00,0.03993
351.00,0.03349
352.00,0.03726
353.00,0.03406
354.00,0.03214
355.00,0.03088
356.00,0.03385
357.00,0.03228
358.00,0.02570
359.00,0.02716
360.00,0.02498
361.00,0.02457
362.00,0.07166
363.00,0.94876
364.00,5.03480
365.00,13.81640
366.00,25.16603
367.00,35.83433
368.00,44.48075
369.00,51.71086
370.00,57.68397
371.00,60.29395
372.00,63.34579
373.00,66.91317
374.00,65.49323
375.00,65.02670
376.00,69.14984
377.00,70.55566
378.00,67.25004
379.00,66.63988
380.00,70.38579
381.00,72.92439
382.00,70.62437
383.00,67.59678
384.00,68.52183
385.00,72.69379
386.00,74.81050
387.00,72.40148
388.00,68.86096
389.00,68.79324
390.00,72.61783
391.00,76.23598
392.00,75.62244
393.00,71.72525
394.00,69.17232
395.00,70.75297
396.00,75.09211
397.00,77.83772
398.00,76.48283
399.00,72.66631
400.00,69.97501
401.00,70.72270
402.00,74.33833
403.00,78.11514
404.00,79.02227
405.00,76.52609
406.00,72.83812
407.00,70.75247
408.00,72.01515
409.00,75.77236
410.00,79.38874
411.00,80.32159
412.00,78.05418
413.00,74.12785
414.00,71.67710
415.00,72.38025
416.00,75.51250
417.00,79.53423
418.00,81.51857
419.00,80.45557
420.00,77.19819
421.00,73.67595
422.00,72.15142
423.00,73.42705
424.00,76.55326
425.00,80.44354
426.00,82.38747
427.00,81.65743
428.00,78.66327
429.00,75.12953
430.00,72.90297
431.00,72.84876
432.00,75.16937
433.00,78.80343
434.00,81.94256
435.00,83.13566
436.00,81.84283
437.00,78.59129
438.00,75.13927
439.00,73.08822
440.00,73.20710
441.00,75.66904
442.00,79.29450
443.00,82.41323
444.00,83.81665
445.00,82.65802
446.00,79.81690
447.00,76.31437
448.00,73.91328
449.00,72.98214
450.00,74.13822
451.00,76.81392
452.00,80.13016
453.00,82.99457
454.00,84.08897
455.00,83.02113
456.00,80.28218
457.00,76.98132
458.00,74.31524
459.00,73.20137
460.00,73.90692
461.00,76.26581
462.00,79.57250
463.00,82.66940
464.00,84.34821
465.00,84.16011
466.00,81.97882
467.00,78.96526
468.00,75.93658
469.00,73.93763
470.00,73.29878
471.00,74.33407
472.00,76.60433
473.00,79.65422
474.00,82.45553
475.00,84.37595
476.00,84.69242
477.00,83.27099
478.00,80.80115
479.00,77.69095
480.00,75.20338
481.00,73.76815
482.00,73.48652
483.00,74.71228
484.00,77.09801
485.00,80.19406
486.00,83.07435
487.00,84.84341
488.00,84.94620
489.00,83.51241
490.00,81.05751
491.00,78.21497
492.00,75.61415
493.00,73.95028
494.00,73.42457
495.00,74.05795
496.00,75.69315
497.00,78.28189
498.00,81.03422
499.00,83.48724
500.00,85.03839
501.00,85.15335
502.00,83.85369
503.00,81.52556
504.00,78.82359
505.00,76.15544
506.00,74.31788
507.00,73.43324
508.00,73.75817
509.00,75.17362
510.00,77.40307
511.00,80.03474
512.00,82.57145
513.00,84.48853
514.00,85.50214
515.00,85.06511
516.00,83.48776
517.00,81.09007
518.00,78.53537
519.00,76.19088
520.00,74.50786
521.00,73.56023
522.00,73.51221
523.00,74.35849
524.00,76.21042
525.00,78.50404
526.00,80.92108
527.00,83.36315
528.00,84.97884
529.00,85.66447
530.00,85.03732
531.00,83.39217
532.00,80.93554
533.00,78.50477
534.00,76.29467
535.00,74.52595
536.00,73.60284
537.00,73.37778
538.00,74.11458
539.00,75.58424
540.00,77.54972
541.00,79.87657
542.00,82.19900
543.00,84.14067
544.00,85.42917
545.00,85.76912
546.00,85.02353
547.00,83.50909
548.00,81.32578
549.00,78.88772
550.00,76.70904
551.00,74.95583
552.00,73.68690
553.00,73.36231
554.00,73.61966
555.00,74.76902
556.00,76.44760
557.00,78.54397
558.00,80.88993
559.00,83.00738
560.00,84.70769
561.00,85.75358
562.00,85.82466
563.00,85.07584
564.00,83.63948
565.00,81.67239
566.00,79.45833
567.00,77.44239
568.00,75.54325
569.00,74.17395
570.00,73.30698
571.00,73.26297
572.00,73.76240
573.00,74.89140
574.00,76.56984
575.00,78.64159
576.00,80.79772
577.00,82.89512
578.00,84.60352
579.00,85.60646
580.00,85.88630
581.00,85.44567
582.00,84.35314
583.00,82.63613
584.00,80.74617
585.00,78.73366
586.00,76.80863
587.00,75.21174
588.00,74.08573
589.00,73.33010
590.00,73.19509
591.00,73.52660
592.00,74.59997
593.00,76.04992
594.00,77.81225
595.00,79.81068
596.00,81.91676
597.00,83.73297
598.00,85.01772
599.00,85.87191
600.00,85.98355
601.00,85.36195
602.00,84.29289
603.00,82.64177
604.00,80.78523
605.00,78.76322
606.00,76.98501
607.00,75.35460
608.00,74.20585
609.00,73.42264
610.00,73.09412
611.00,73.24649
612.00,73.77230
613.00,74.83147
614.00,76.24266
615.00,77.93819
616.00,79.79363
617.00,81.68934
618.00,83.46603
619.00,84.90627
620.00,85.80147
621.00,86.07674
622.00,85.78075
623.00,84.95997
624.00,83.65978
625.00,81.98577
626.00,80.22081
627.00,78.32593
628.00,76.83147
629.00,75.33339
630.00,74.27557
631.00,73.42861
632.00,73.02654
633.00,72.98713
634.00,73.51959
635.00,74.34406
636.00,75.42021
637.00,76.94843
638.00,78.77821
639.00,80.40824
640.00,82.31656
641.00,83.87827
642.00,85.06376
643.00,85.89527
644.00,86.23475
645.00,85.94499
646.00,85.13010
647.00,84.10563
648.00,82.67838
649.00,81.17258
650.00,79.43052
651.00,77.72185
652.00,76.16912
653.00,74.98004
654.00,74.03367
655.00,73.24439
656.00,72.96929
657.00,72.78099
658.00,73.19556
659.00,73.94113
660.00,75.03012
661.00,76.35422
662.00,77.84194
663.00,79.45094
664.00,81.26799
665.00,82.73207
666.00,84.16302
667.00,85.26493
668.00,85.85103
669.00,86.09839
670.00,86.07705
671.00,85.50098
672.00,84.75635
673.00,83.52139
674.00,82.12572
675.00,80.47066
676.00,78.97826
677.00,77.53227
678.00,76.13620
679.00,74.88497
680.00,73.90216
681.00,73.22298
682.00,72.94853
683.00,72.72963
684.00,72.96011
685.00,73.69654
686.00,74.46555
687.00,75.57332
688.00,76.86207
689.00,78.23369
690.00,79.64594
691.00,81.09024
692.00,82.67489
693.00,83.89595
694.00,84.98703
695.00,85.82332
696.00,86.17442
697.00,86.17650
698.00,85.93879
699.00,85.27817
700.00,84.42329
701.00,83.21877
702.00,81.90353
703.00,80.57235
704.00,78.97750
705.00,77.60642
706.00,76.29989
707.00,75.07957
708.00,74.17299
709.00,73.46321
710.00,72.93451
711.00,72.76695
712.00,72.80628
713.00,73.14572
714.00,73.82511
715.00,74.28992
716.00,75.15002
717.00,76.42226
718.00,77.67202
719.00,79.15420
720.00,80.39524
721.00,81.65901
722.00,83.10288
723.00,84.23308
724.00,85.10768
725.00,85.92695
726.00,86.28676
727.00,86.39824
728.00,86.02064
729.00,85.41468
730.00,84.80401
731.00,83.61692
732.00,82.46100
733.00,80.90948
734.00,79.75594
735.00,78.44415
736.00,76.84690
737.00,75.77171
738.00,74.80099
739.00,74.18047
740.00,73.65382
741.00,72.81284
742.00,72.80135
743.00,72.82975
744.00,72.93625
745.00,73.20607
746.00,73.81600
747.00,74.59314
748.00,75.44496
749.00,76.56929
750.00,77.71102
751.00,78.77781
752.00,80.21837
753.00,81.69947
754.00,82.86319
755.00,83.97346
756.00,84.94709
757.00,85.53213
758.00,86.15400
759.00,86.37001
760.00,86.41223
761.00,86.17618
762.00,85.75404
763.00,85.05734
764.00,84.06923
765.00,83.03095
766.00,82.00532
767.00,80.70604
768.00,79.20423
769.00,78.06947
770.00,76.92705
771.00,75.51067
772.00,74.63572
773.00,74.31599
774.00,73.24214
775.00,72.67572
776.00,72.47892
777.00,72.41594
778.00,72.39426
779.00,72.65213
780.00,72.83590
781.00,73.54637
782.00,74.26556
783.00,75.24951
784.00,75.96829
785.00,77.38219
786.00,78.27298
787.00,79.66568
788.00,80.98333
789.00,81.60524
790.00,83.05530
791.00,84.03799
792.00,84.81138
793.00,85.33645
794.00,85.96398
795.00,86.16812
796.00,86.12683
797.00,86.25509
798.00,86.01692
799.00,85.64348
800.00,84.92539
801.00,83.81295
802.00,82.60081
803.00,82.29254
804.00,80.61383
805.00,79.34130
806.00,78.31450
807.00,77.36675
808.00,76.05447
809.00,75.22640
810.00,74.50445
811.00,74.08466
812.00,73.48712
813.00,72.70213
814.00,72.97627
815.00,72.62366
816.00,72.53665
817.00,72.90237
818.00,72.75049
819.00,73.03650
820.00,73.72974
821.00,74.52177
822.00,75.39676
823.00,76.60795
824.00,77.63907
825.00,77.80826
826.00,79.07311
827.00,80.69726
828.00,81.43302
829.00,81.86678
830.00,83.51126
831.00,84.38013
832.00,85.19011
833.00,85.54913
834.00,86.19839
835.00,86.02199
836.00,87.24065
837.00,85.67714
838.00,86.34124
839.00,86.70650
840.00,85.27239
841.00,84.63517
842.00,82.86955
843.00,82.55945
844.00,81.97113
845.00,80.37900
846.00,79.92254
847.00,78.36400
848.00,78.23980
849.00,77.13199
850.00,75.41344
851.00,73.78181
852.00,75.62298
853.00,74.68652
854.00,73.45751
855.00,73.15935
856.00,73.78507
857.00,72.98183
858.00,74.46620
859.00,71.85647
860.00,71.80129
861.00,72.02978
862.00,74.57621
863.00,75.33420
864.00,71.86312
865.00,75.87190
866.00,77.39713
867.00,78.32181
868.00,77.18740
869.00,75.68219
870.00,82.48941
871.00,79.59616
872.00,82.68266
873.00,82.53397
874.00,80.40308
875.00,80.85884
876.00,82.61048
877.00,87.27995
878.00,85.30940
879.00,90.46143
880.00,88.64678
881.00,89.64623
882.00,93.27968
883.00,78.33086
884.00,83.26955
885.00,81.93233
886.00,78.21314
887.00,80.37816
888.00,75.51088
889.00,87.37499
890.00,83.64658
891.00,84.26087
892.00,87.72538
893.00,79.11295
894.00,87.12210
895.00,69.72821
896.00,80.93342
897.00,81.40371
898.00,77.80212
899.00,74.89879
900.00,72.22748
