"SapphireDoubleCoated - RawData"
"Wavelength nm.","T%"
200.00,80.86102
201.00,79.83100
202.00,78.81624
203.00,80.06129
204.00,82.26646
205.00,82.07954
206.00,80.19718
207.00,82.18224
208.00,81.49927
209.00,81.53179
210.00,80.38606
211.00,83.83661
212.00,81.00922
213.00,80.43278
214.00,81.35078
215.00,81.09223
216.00,81.98279
217.00,81.73420
218.00,81.00433
219.00,81.72217
220.00,83.34922
221.00,82.28070
222.00,81.59812
223.00,81.81267
224.00,82.14905
225.00,81.83764
226.00,82.52112
227.00,82.17906
228.00,81.99738
229.00,82.27822
230.00,82.71672
231.00,82.69795
232.00,82.14167
233.00,82.50801
234.00,83.83623
235.00,82.43179
236.00,82.46677
237.00,83.45260
238.00,83.39617
239.00,83.45100
240.00,83.44408
241.00,83.66028
242.00,83.57171
243.00,83.43579
244.00,83.71570
245.00,83.92064
246.00,84.34178
247.00,83.95323
248.00,83.39192
249.00,83.93288
250.00,84.51189
251.00,84.15214
252.00,84.08598
253.00,83.96029
254.00,83.42686
255.00,84.35931
256.00,84.35236
257.00,84.08897
258.00,84.06330
259.00,84.21775
260.00,84.30992
261.00,83.86341
262.00,83.67418
263.00,83.98635
264.00,83.95162
265.00,83.97945
266.00,84.53499
267.00,84.39983
268.00,84.43512
269.00,84.87105
270.00,84.37836
271.00,84.67133
272.00,84.34138
273.00,84.40878
274.00,84.51656
275.00,84.58031
276.00,84.15267
277.00,84.25525
278.00,84.89447
279.00,84.15406
280.00,84.74315
281.00,84.34303
282.00,84.74262
283.00,84.59070
284.00,84.31398
285.00,84.65217
286.00,84.72228
287.00,84.49993
288.00,84.66799
289.00,84.89974
290.00,84.79307
291.00,84.78229
292.00,84.66696
293.00,84.72116
294.00,84.65636
295.00,84.76946
296.00,84.71937
297.00,84.36908
298.00,84.07372
299.00,84.55017
300.00,84.55986
301.00,84.85391
302.00,85.17961
303.00,85.03788
304.00,85.36756
305.00,84.67546
306.00,84.86187
307.00,85.49101
308.00,85.27693
309.00,84.67159
310.00,85.17439
311.00,85.33766
312.00,85.21589
313.00,85.37292
314.00,85.17352
315.00,85.49012
316.00,85.51355
317.00,85.04477
318.00,84.92584
319.00,84.92069
320.00,84.86286
321.00,84.79992
322.00,85.09116
323.00,85.05622
324.00,85.27992
325.00,85.07148
326.00,85.30804
327.00,84.79149
328.00,84.90947
329.00,84.94333
330.00,85.01311
331.00,85.04845
332.00,85.19069
333.00,84.71385
334.00,84.63040
335.00,84.87461
336.00,84.76994
337.00,84.63956
338.00,85.10213
339.00,84.92174
340.00,85.17585
341.00,85.31734
342.00,85.03364
343.00,85.38917
344.00,85.18682
345.00,85.19590
346.00,85.18646
347.00,84.76595
348.00,84.91424
349.00,85.19176
350.00,85.07555
351.00,85.17276
352.00,85.34506
353.00,85.46519
354.00,85.28520
355.00,84.94042
356.00,85.44910
357.00,84.70376
358.00,84.96055
359.00,85.51171
360.00,85.31674
361.00,85.07065
362.00,85.10596
363.00,85.32293
364.00,85.05529
365.00,85.25338
366.00,85.01830
367.00,84.97299
368.00,85.21909
369.00,85.19583
370.00,85.73097
371.00,85.27696
372.00,84.70748
373.00,85.47860
374.00,85.37630
375.00,85.21623
376.00,85.29316
377.00,85.21248
378.00,85.22432
379.00,85.26081
380.00,85.42752
381.00,85.39625
382.00,85.23915
383.00,85.39771
384.00,85.38341
385.00,85.36204
386.00,85.25345
387.00,85.18311
388.00,84.99007
389.00,85.45043
390.00,85.50957
391.00,85.21416
392.00,85.16627
393.00,85.48437
394.00,85.37666
395.00,85.42193
396.00,85.31434
397.00,85.32640
398.00,85.34553
399.00,85.29138
400.00,85.29342
401.00,85.35496
402.00,85.31258
403.00,85.36127
404.00,85.31973
405.00,85.25742
406.00,85.34980
407.00,85.65739
408.00,85.42447
409.00,85.28297
410.00,85.42906
411.00,85.38289
412.00,85.16251
413.00,85.25947
414.00,85.42104
415.00,85.31120
416.00,85.27989
417.00,85.38659
418.00,85.46158
419.00,85.45322
420.00,85.31439
421.00,85.35040
422.00,85.41968
423.00,85.38000
424.00,85.30419
425.00,85.50838
426.00,85.47971
427.00,85.68280
428.00,85.40925
429.00,85.44214
430.00,85.58602
431.00,85.21597
432.00,85.44952
433.00,85.57404
434.00,85.49110
435.00,85.56185
436.00,85.47883
437.00,85.51206
438.00,85.57724
439.00,85.43998
440.00,85.55129
441.00,85.52136
442.00,85.41110
443.00,85.48086
444.00,85.47506
445.00,85.52148
446.00,85.62663
447.00,85.64721
448.00,85.48334
449.00,85.41647
450.00,85.33953
451.00,85.57662
452.00,85.75490
453.00,85.60067
454.00,85.43408
455.00,85.44674
456.00,85.68971
457.00,85.54628
458.00,85.62544
459.00,85.50932
460.00,85.64179
461.00,85.52554
462.00,85.65941
463.00,85.46827
464.00,85.58649
465.00,85.47695
466.00,85.48849
467.00,85.50711
468.00,85.61771
469.00,85.52169
470.00,85.53800
471.00,85.46826
472.00,85.49181
473.00,85.67415
474.00,85.58254
475.00,85.47121
476.00,85.48226
477.00,85.58643
478.00,85.54075
479.00,85.65741
480.00,85.52855
481.00,85.61724
482.00,85.49110
483.00,85.57411
484.00,85.52887
485.00,85.58275
486.00,85.48504
487.00,85.65018
488.00,85.66688
489.00,85.49134
490.00,85.52484
491.00,85.51908
492.00,85.62058
493.00,85.52818
494.00,85.65329
495.00,85.57169
496.00,85.51657
497.00,85.60262
498.00,85.61298
499.00,85.53420
500.00,85.59415
501.00,85.64511
502.00,85.58367
503.00,85.52577
504.00,85.61779
505.00,85.69739
506.00,85.57505
507.00,85.62562
508.00,85.55272
509.00,85.63952
510.00,85.51500
511.00,85.58473
512.00,85.54328
513.00,85.52433
514.00,85.50427
515.00,85.63517
516.00,85.48224
517.00,85.74448
518.00,85.53548
519.00,85.47552
520.00,85.50205
521.00,85.60706
522.00,85.58353
523.00,85.71992
524.00,85.72053
525.00,85.70032
526.00,85.65235
527.00,85.66476
528.00,85.68086
529.00,85.58692
530.00,85.63196
531.00,85.69608
532.00,85.51880
533.00,85.76570
534.00,85.79262
535.00,85.62729
536.00,85.63122
537.00,85.58247
538.00,85.58597
539.00,85.67695
540.00,85.60579
541.00,85.56829
542.00,85.79063
543.00,85.61051
544.00,85.67857
545.00,85.63797
546.00,85.73226
547.00,85.54329
548.00,85.74699
549.00,85.64058
550.00,85.68573
551.00,85.69186
552.00,85.64293
553.00,85.67603
554.00,85.65100
555.00,85.81448
556.00,85.61294
557.00,85.69114
558.00,85.67475
559.00,85.57418
560.00,85.70376
561.00,85.68159
562.00,85.74308
563.00,85.70731
564.00,85.78550
565.00,85.67196
566.00,85.59763
567.00,85.72515
568.00,85.61057
569.00,85.79360
570.00,85.73997
571.00,85.69038
572.00,85.67609
573.00,85.73534
574.00,85.68330
575.00,85.63190
576.00,85.63942
577.00,85.67921
578.00,85.72103
579.00,85.77930
580.00,85.64355
581.00,85.71499
582.00,85.69596
583.00,85.70593
584.00,85.64883
585.00,85.74970
586.00,85.59941
587.00,85.60177
588.00,85.64708
589.00,85.61563
590.00,85.71233
591.00,85.57415
592.00,85.66521
593.00,85.72103
594.00,85.64556
595.00,85.66293
596.00,85.67927
597.00,85.71765
598.00,85.65301
599.00,85.62706
600.00,85.85826
601.00,85.69019
602.00,85.69294
603.00,85.73954
604.00,85.69188
605.00,85.67436
606.00,85.66262
607.00,85.75615
608.00,85.69124
609.00,85.69996
610.00,85.67537
611.00,85.73603
612.00,85.68993
613.00,85.63321
614.00,85.74216
615.00,85.58300
616.00,85.72828
617.00,85.77068
618.00,85.69251
619.00,85.83906
620.00,85.77960
621.00,85.71300
622.00,85.74936
623.00,85.68295
624.00,85.63587
625.00,85.82736
626.00,85.65744
627.00,85.60971
628.00,85.65490
629.00,85.85691
630.00,85.71078
631.00,85.81033
632.00,85.79546
633.00,85.69233
634.00,85.77198
635.00,85.76432
636.00,85.65339
637.00,85.79779
638.00,85.71736
639.00,85.60976
640.00,85.74609
641.00,85.57921
642.00,85.84292
643.00,85.68887
644.00,85.68680
645.00,85.82970
646.00,85.83350
647.00,85.75691
648.00,85.76012
649.00,85.75355
650.00,85.67320
651.00,85.72728
652.00,85.77621
653.00,85.73610
654.00,85.69987
655.00,85.76553
656.00,85.79933
657.00,85.82084
658.00,85.70038
659.00,85.83357
660.00,85.78125
661.00,85.74648
662.00,85.63009
663.00,85.82562
664.00,85.48969
665.00,85.93864
666.00,85.77164
667.00,85.80220
668.00,85.75464
669.00,85.58800
670.00,85.79041
671.00,85.72416
672.00,85.70619
673.00,85.87593
674.00,85.72323
675.00,85.80490
676.00,85.79944
677.00,85.83756
678.00,85.95001
679.00,85.93047
680.00,85.84024
681.00,85.58613
682.00,85.89752
683.00,85.66002
684.00,85.83343
685.00,85.77020
686.00,85.85407
687.00,85.66144
688.00,85.71620
689.00,85.97603
690.00,85.68695
691.00,85.76291
692.00,85.68256
693.00,85.88873
694.00,85.84718
695.00,85.89025
696.00,85.98753
697.00,85.80213
698.00,85.80706
699.00,85.76517
700.00,85.73673
701.00,85.75684
702.00,85.88912
703.00,85.67343
704.00,85.94559
705.00,86.02929
706.00,85.62384
707.00,85.86266
708.00,85.93306
709.00,85.86140
710.00,85.77981
711.00,85.86271
712.00,85.89504
713.00,85.83710
714.00,85.93281
715.00,85.86593
716.00,85.86563
717.00,86.24647
718.00,85.82051
719.00,86.03628
720.00,85.61848
721.00,85.87416
722.00,85.77805
723.00,85.97459
724.00,85.89432
725.00,85.92800
726.00,85.98940
727.00,85.85104
728.00,85.82757
729.00,85.80278
730.00,85.97700
731.00,85.77304
732.00,85.67675
733.00,85.88196
734.00,85.86703
735.00,86.08528
736.00,85.79516
737.00,85.76944
738.00,86.00551
739.00,85.79561
740.00,85.71404
741.00,85.76276
742.00,85.94635
743.00,86.03166
744.00,85.65198
745.00,85.92425
746.00,85.92531
747.00,85.76920
748.00,85.77886
749.00,86.17571
750.00,85.79115
751.00,85.69829
752.00,85.96913
753.00,86.15718
754.00,85.81684
755.00,85.78079
756.00,85.99830
757.00,85.71972
758.00,85.77827
759.00,85.84328
760.00,86.24303
761.00,85.66402
762.00,85.61330
763.00,86.00380
764.00,85.73593
765.00,85.54900
766.00,85.74387
767.00,85.66287
768.00,85.94820
769.00,85.80433
770.00,86.04513
771.00,85.66309
772.00,86.12938
773.00,86.05127
774.00,86.51891
775.00,85.77835
776.00,86.40990
777.00,86.01450
778.00,86.22162
779.00,86.11414
780.00,86.06730
781.00,85.52841
782.00,86.26316
783.00,85.62925
784.00,85.88797
785.00,85.62071
786.00,85.50357
787.00,86.19736
788.00,85.33278
789.00,85.81583
790.00,85.62567
791.00,86.16427
792.00,85.83653
793.00,85.68634
794.00,86.07103
795.00,86.10998
796.00,85.66768
797.00,85.40162
798.00,86.35156
799.00,86.87838
800.00,86.23574
