"DPSapphirePaintVSlow - RawData"
"Wavelength nm.","T%"
200.00,78.96892
201.00,78.11583
202.00,79.11032
203.00,79.71045
204.00,80.12650
205.00,78.14674
206.00,79.59659
207.00,79.62772
208.00,80.24738
209.00,80.11648
210.00,80.74391
211.00,80.30437
212.00,80.63858
213.00,81.61514
214.00,81.54066
215.00,81.21696
216.00,81.35132
217.00,82.09555
218.00,81.63742
219.00,82.01112
220.00,81.95909
221.00,82.29858
222.00,82.08233
223.00,82.36005
224.00,81.96819
225.00,82.12715
226.00,82.32715
227.00,82.78635
228.00,82.77844
229.00,82.45208
230.00,82.63004
231.00,82.74342
232.00,82.60862
233.00,82.73416
234.00,82.85153
235.00,82.94512
236.00,83.29132
237.00,82.92891
238.00,83.47628
239.00,83.26948
240.00,83.31292
241.00,83.43963
242.00,83.15259
243.00,83.46911
244.00,83.26000
245.00,83.48678
246.00,83.67379
247.00,83.42491
248.00,83.24843
249.00,83.60891
250.00,83.56629
251.00,83.60348
252.00,83.79587
253.00,83.68309
254.00,83.55886
255.00,83.50946
256.00,83.60798
257.00,83.86725
258.00,83.85445
259.00,83.74993
260.00,83.93596
261.00,83.83704
262.00,83.97381
263.00,83.96024
264.00,84.07156
265.00,83.89496
266.00,83.85823
267.00,83.96704
268.00,84.05455
269.00,84.05522
270.00,84.12958
271.00,84.28609
272.00,84.18423
273.00,84.11920
274.00,84.34141
275.00,84.18303
276.00,84.26371
277.00,84.35124
278.00,84.06856
279.00,84.23718
280.00,84.39015
281.00,84.32306
282.00,84.35962
283.00,84.54893
284.00,84.47934
285.00,84.58396
286.00,84.70644
287.00,84.60562
288.00,84.57472
289.00,84.48220
290.00,84.54596
291.00,84.41115
292.00,84.52961
293.00,84.53832
294.00,84.70601
295.00,84.79562
296.00,84.73751
297.00,84.65099
298.00,84.40731
299.00,84.76908
300.00,84.81001
301.00,84.74797
302.00,84.78138
303.00,84.82750
304.00,84.78102
305.00,85.08322
306.00,84.86890
307.00,84.83015
308.00,84.94627
309.00,85.08492
310.00,84.75403
311.00,84.85586
312.00,84.94856
313.00,84.65410
314.00,84.87270
315.00,84.87533
316.00,85.03665
317.00,85.00484
318.00,85.15631
319.00,85.01721
320.00,85.02199
321.00,85.13176
322.00,84.85747
323.00,85.11883
324.00,85.19705
325.00,84.80257
326.00,85.17938
327.00,85.01396
328.00,84.84147
329.00,84.86472
330.00,84.93509
331.00,84.91589
332.00,84.81836
333.00,85.36844
334.00,85.10559
335.00,85.07271
336.00,85.02131
337.00,85.05703
338.00,85.25063
339.00,85.03960
340.00,85.35841
341.00,85.21860
342.00,84.99668
343.00,85.24128
344.00,85.06003
345.00,85.15010
346.00,85.22214
347.00,85.27324
348.00,85.15933
349.00,85.13005
350.00,85.20707
351.00,84.96656
352.00,85.19658
353.00,85.19521
354.00,85.11334
355.00,85.19107
356.00,85.20751
357.00,85.30934
358.00,85.34571
359.00,85.22807
360.00,85.19199
361.00,85.19487
362.00,85.25801
363.00,85.29770
364.00,85.12539
365.00,85.22869
366.00,85.29831
367.00,85.23117
368.00,85.36711
369.00,85.32287
370.00,85.28448
371.00,85.30007
372.00,85.10935
373.00,85.21819
374.00,85.34652
375.00,85.39330
376.00,85.32563
377.00,85.36069
378.00,85.37192
379.00,85.46938
380.00,85.35321
381.00,85.43528
382.00,85.36331
383.00,85.32474
384.00,85.30595
385.00,85.24606
386.00,85.39397
387.00,85.32456
388.00,85.49227
389.00,85.37509
390.00,85.38000
391.00,85.37825
392.00,85.44332
393.00,85.44856
394.00,85.38254
395.00,85.30490
396.00,85.42140
397.00,85.42954
398.00,85.51037
399.00,85.40661
400.00,85.39484
401.00,85.50134
402.00,85.40919
403.00,85.43574
404.00,85.37493
405.00,85.41071
406.00,85.45884
407.00,85.57617
408.00,85.45073
409.00,85.46126
410.00,85.50516
411.00,85.41508
412.00,85.52158
413.00,85.47037
414.00,85.51316
415.00,85.52040
416.00,85.44376
417.00,85.48043
418.00,85.45306
419.00,85.58832
420.00,85.46194
421.00,85.64175
422.00,85.43637
423.00,85.52996
424.00,85.51667
425.00,85.57083
426.00,85.63066
427.00,85.55470
428.00,85.56606
429.00,85.49448
430.00,85.60521
431.00,85.62739
432.00,85.59508
433.00,85.65524
434.00,85.52563
435.00,85.55412
436.00,85.54044
437.00,85.65022
438.00,85.54174
439.00,85.59322
440.00,85.54315
441.00,85.57691
442.00,85.55903
443.00,85.66364
444.00,85.65179
445.00,85.78101
446.00,85.58386
447.00,85.60461
448.00,85.64327
449.00,85.57446
450.00,85.62458
451.00,85.65462
452.00,85.63872
453.00,85.59796
454.00,85.66751
455.00,85.60346
456.00,85.60518
457.00,85.65484
458.00,85.63591
459.00,85.66033
460.00,85.57544
461.00,85.59836
462.00,85.64652
463.00,85.72397
464.00,85.64248
465.00,85.69082
466.00,85.72240
467.00,85.69111
468.00,85.72887
469.00,85.72800
470.00,85.67488
471.00,85.70654
472.00,85.65380
473.00,85.62931
474.00,85.70077
475.00,85.64509
476.00,85.71713
477.00,85.72047
478.00,85.63085
479.00,85.70326
480.00,85.72572
481.00,85.71486
482.00,85.71464
483.00,85.74234
484.00,85.70215
485.00,85.70556
486.00,85.71469
487.00,85.74196
488.00,85.66061
489.00,85.73071
490.00,85.71305
491.00,85.75978
492.00,85.81330
493.00,85.69421
494.00,85.73762
495.00,85.68989
496.00,85.73498
497.00,85.72329
498.00,85.79609
499.00,85.76987
500.00,85.79975
501.00,85.71200
502.00,85.73255
503.00,85.74952
504.00,85.79058
505.00,85.77907
506.00,85.74264
507.00,85.77845
508.00,85.72714
509.00,85.74264
510.00,85.69348
511.00,85.75932
512.00,85.75022
513.00,85.78033
514.00,85.82271
515.00,85.73413
516.00,85.78497
517.00,85.74603
518.00,85.76380
519.00,85.76224
520.00,85.70341
521.00,85.80934
522.00,85.80554
523.00,85.80458
524.00,85.79124
525.00,85.75101
526.00,85.77579
527.00,85.82624
528.00,85.82214
529.00,85.81508
530.00,85.80117
531.00,85.81246
532.00,85.78702
533.00,85.76704
534.00,85.79796
535.00,85.82687
536.00,85.93104
537.00,85.83064
538.00,85.81345
539.00,85.82207
540.00,85.77831
541.00,85.85447
542.00,85.83447
543.00,85.87945
544.00,85.77347
545.00,85.83102
546.00,85.79189
547.00,85.75736
548.00,85.80450
549.00,85.92462
550.00,85.84985
551.00,85.84340
552.00,85.88658
553.00,85.85297
554.00,85.78198
555.00,85.81434
556.00,85.84644
557.00,85.85996
558.00,85.83101
559.00,85.84586
560.00,85.85680
561.00,85.87803
562.00,85.88345
563.00,85.89488
564.00,85.88876
565.00,85.88745
566.00,85.91929
567.00,85.89924
568.00,85.92325
569.00,85.86385
570.00,85.88191
571.00,85.83192
572.00,85.84350
573.00,85.85300
574.00,85.87348
575.00,85.84950
576.00,85.86619
577.00,85.84493
578.00,85.82958
579.00,85.86318
580.00,85.84687
581.00,85.84227
582.00,85.80796
583.00,85.89467
584.00,85.85185
585.00,85.82513
586.00,85.87458
587.00,85.92231
588.00,85.87504
589.00,85.85384
590.00,85.92865
591.00,85.87417
592.00,85.80391
593.00,85.84607
594.00,85.90664
595.00,85.85951
596.00,85.90691
597.00,85.83387
598.00,85.86098
599.00,85.89699
600.00,85.89694
601.00,85.90909
602.00,85.92877
603.00,85.90130
604.00,85.93186
605.00,85.88356
606.00,85.94755
607.00,85.93552
608.00,85.95771
609.00,85.89697
610.00,85.92996
611.00,85.84044
612.00,85.90701
613.00,85.86748
614.00,85.91707
615.00,85.94508
616.00,85.88679
617.00,85.92621
618.00,85.92265
619.00,85.91676
620.00,85.93058
621.00,85.89771
622.00,85.93965
623.00,85.89882
624.00,85.94414
625.00,85.95344
626.00,85.94286
627.00,85.95222
628.00,85.90094
629.00,85.91401
630.00,86.07712
631.00,85.92829
632.00,85.94723
633.00,85.92978
634.00,86.04191
635.00,86.03652
636.00,85.95731
637.00,85.92846
638.00,85.95579
639.00,86.00748
640.00,85.96927
641.00,86.03580
642.00,85.98033
643.00,85.94281
644.00,85.91598
645.00,85.94598
646.00,86.06972
647.00,85.99262
648.00,85.95102
649.00,85.88922
650.00,85.97538
651.00,86.02325
652.00,85.89287
653.00,85.90958
654.00,85.99198
655.00,86.09957
656.00,86.02631
657.00,86.02743
658.00,86.00802
659.00,85.94478
660.00,86.00448
661.00,86.04004
662.00,86.07543
663.00,86.02040
664.00,86.08594
665.00,86.05999
666.00,86.03162
667.00,85.98585
668.00,86.03913
669.00,86.06090
670.00,86.08782
671.00,86.06966
672.00,86.01487
673.00,86.02813
674.00,86.15063
675.00,86.09989
676.00,86.12911
677.00,86.10824
678.00,86.04372
679.00,86.04950
680.00,86.08496
681.00,86.05291
682.00,86.01971
683.00,86.05470
684.00,86.01071
685.00,86.17389
686.00,86.09364
687.00,86.17685
688.00,86.02309
689.00,86.09427
690.00,86.04936
691.00,86.12497
692.00,86.16064
693.00,86.09749
694.00,86.05027
695.00,86.13933
696.00,86.09761
697.00,86.09139
698.00,86.19478
699.00,86.14742
700.00,86.15903
701.00,86.04683
702.00,86.22764
703.00,86.19661
704.00,86.08329
705.00,86.21950
706.00,86.14786
707.00,86.21530
708.00,86.15954
709.00,86.18561
710.00,86.14939
711.00,86.18448
712.00,86.15711
713.00,86.32643
714.00,86.13678
715.00,86.15597
716.00,86.03942
717.00,86.18461
718.00,86.15061
719.00,86.21168
720.00,86.18610
721.00,86.15559
722.00,86.21551
723.00,86.24535
724.00,86.22736
725.00,86.18506
726.00,86.10802
727.00,86.38442
728.00,86.13387
729.00,85.89723
730.00,86.17442
731.00,86.12676
732.00,86.31973
733.00,86.30916
734.00,86.26184
735.00,86.11757
736.00,85.97521
737.00,86.14053
738.00,86.23089
739.00,86.04480
740.00,86.29479
741.00,86.22143
742.00,86.28398
743.00,86.16955
744.00,86.01084
745.00,86.31111
746.00,85.96169
747.00,86.26105
748.00,86.25559
749.00,86.14060
750.00,86.27660
751.00,85.94000
752.00,86.30548
753.00,86.25504
754.00,86.05175
755.00,86.16022
756.00,86.37878
757.00,86.34911
758.00,86.40449
759.00,86.27439
760.00,86.13382
761.00,86.11500
762.00,86.34593
763.00,86.39104
764.00,86.50129
765.00,86.38436
766.00,86.24836
767.00,86.34594
768.00,86.48026
769.00,86.35562
770.00,86.30640
771.00,86.27579
772.00,86.33710
773.00,86.47581
774.00,86.37791
775.00,86.28232
776.00,86.35377
777.00,86.38806
778.00,86.26083
779.00,86.51263
780.00,86.19045
781.00,86.37214
782.00,85.97782
783.00,86.17257
784.00,86.46208
785.00,86.39728
786.00,86.28339
787.00,86.53580
788.00,86.02014
789.00,86.20989
790.00,86.05390
791.00,86.27165
792.00,86.21173
793.00,86.24290
794.00,86.63111
795.00,86.14006
796.00,86.14583
797.00,86.37560
798.00,86.23369
799.00,86.08744
800.00,86.43730
