"DPSapphireV10VSlowiNVERSED - RawData"
"Wavelength nm.","T%"
200.00,77.17506
201.00,78.61773
202.00,78.53040
203.00,78.70445
204.00,80.39225
205.00,80.61180
206.00,78.48164
207.00,80.46230
208.00,81.50342
209.00,80.61960
210.00,80.64117
211.00,80.32764
212.00,81.42880
213.00,80.98007
214.00,81.08517
215.00,81.12389
216.00,80.93997
217.00,81.06095
218.00,81.37580
219.00,81.50142
220.00,81.60332
221.00,81.36131
222.00,81.73265
223.00,82.05582
224.00,81.89425
225.00,82.29414
226.00,82.20915
227.00,81.58844
228.00,82.40790
229.00,82.06886
230.00,82.06517
231.00,82.02302
232.00,82.29427
233.00,82.59674
234.00,82.84907
235.00,83.09445
236.00,82.95152
237.00,82.95335
238.00,82.97555
239.00,82.97565
240.00,83.11517
241.00,83.29638
242.00,83.31372
243.00,83.32198
244.00,83.25558
245.00,83.08200
246.00,83.49523
247.00,83.15672
248.00,83.31956
249.00,83.36620
250.00,83.50688
251.00,83.33503
252.00,83.12232
253.00,83.72629
254.00,83.29744
255.00,83.54524
256.00,83.56054
257.00,83.53766
258.00,83.72964
259.00,83.51585
260.00,83.47796
261.00,83.33651
262.00,83.69079
263.00,83.62833
264.00,83.89322
265.00,83.48380
266.00,83.61824
267.00,83.77167
268.00,83.57649
269.00,83.76500
270.00,83.71359
271.00,83.73044
272.00,83.69150
273.00,83.86189
274.00,83.83811
275.00,83.64341
276.00,83.84426
277.00,84.08975
278.00,83.71399
279.00,84.02045
280.00,84.05566
281.00,84.17578
282.00,84.03714
283.00,83.98228
284.00,84.05883
285.00,83.91855
286.00,83.96681
287.00,84.12454
288.00,84.08105
289.00,83.90043
290.00,84.21938
291.00,84.20621
292.00,83.96724
293.00,84.33851
294.00,84.11399
295.00,83.97780
296.00,84.25024
297.00,84.13696
298.00,84.12458
299.00,84.37162
300.00,84.18248
301.00,84.32912
302.00,84.12313
303.00,84.22784
304.00,84.13904
305.00,84.20903
306.00,84.21709
307.00,84.16899
308.00,84.36874
309.00,84.58122
310.00,84.26619
311.00,84.30063
312.00,84.12262
313.00,84.21681
314.00,84.16653
315.00,84.35500
316.00,84.38278
317.00,84.20623
318.00,84.38114
319.00,84.07877
320.00,84.26579
321.00,84.09684
322.00,84.18418
323.00,84.41517
324.00,84.42868
325.00,84.28307
326.00,84.18391
327.00,84.24395
328.00,84.52944
329.00,84.42748
330.00,84.44732
331.00,84.22199
332.00,83.91970
333.00,84.31100
334.00,84.31010
335.00,84.30117
336.00,84.41215
337.00,84.42057
338.00,84.37080
339.00,84.31995
340.00,84.48064
341.00,84.58322
342.00,84.39366
343.00,84.57494
344.00,84.34311
345.00,84.75821
346.00,84.31939
347.00,84.43742
348.00,84.61046
349.00,84.37329
350.00,84.46288
351.00,84.51838
352.00,84.41133
353.00,84.54531
354.00,84.45761
355.00,84.50318
356.00,84.40182
357.00,84.63110
358.00,84.58502
359.00,84.63485
360.00,84.53230
361.00,84.65593
362.00,84.68826
363.00,84.70734
364.00,84.54840
365.00,84.63057
366.00,84.43059
367.00,84.62293
368.00,84.78783
369.00,84.64659
370.00,84.63680
371.00,84.72271
372.00,84.79734
373.00,84.75922
374.00,84.81067
375.00,84.69260
376.00,84.70404
377.00,84.74581
378.00,84.64984
379.00,84.72226
380.00,84.63393
381.00,84.71382
382.00,84.61663
383.00,84.73736
384.00,84.55718
385.00,84.57444
386.00,84.72338
387.00,84.57906
388.00,84.62720
389.00,84.69883
390.00,84.60557
391.00,84.69140
392.00,84.64212
393.00,84.73317
394.00,84.71335
395.00,84.69134
396.00,84.75094
397.00,84.73484
398.00,84.80448
399.00,84.68711
400.00,84.78639
401.00,84.80337
402.00,84.89109
403.00,84.83913
404.00,84.80635
405.00,84.84187
406.00,84.77346
407.00,84.74946
408.00,84.82168
409.00,84.90204
410.00,84.77343
411.00,84.83080
412.00,84.88127
413.00,84.86679
414.00,84.81615
415.00,84.81298
416.00,84.86054
417.00,84.78356
418.00,84.84486
419.00,84.84486
420.00,84.91795
421.00,84.86463
422.00,84.77889
423.00,84.89472
424.00,84.84825
425.00,84.89425
426.00,84.82751
427.00,84.90669
428.00,84.96194
429.00,84.97918
430.00,84.90492
431.00,84.89980
432.00,84.85657
433.00,84.96073
434.00,84.89238
435.00,84.87384
436.00,84.92960
437.00,84.94641
438.00,84.96009
439.00,84.92829
440.00,84.96037
441.00,84.97126
442.00,84.88573
443.00,84.96704
444.00,84.88623
445.00,85.02511
446.00,84.97252
447.00,84.93614
448.00,84.93910
449.00,84.94790
450.00,84.98849
451.00,84.94117
452.00,85.03964
453.00,85.03683
454.00,85.01309
455.00,84.95914
456.00,84.98613
457.00,84.98675
458.00,84.94948
459.00,85.02608
460.00,84.99497
461.00,85.01399
462.00,85.04134
463.00,85.02195
464.00,85.06499
465.00,85.06243
466.00,85.01393
467.00,85.07311
468.00,85.04217
469.00,85.01232
470.00,85.05672
471.00,85.09701
472.00,85.00276
473.00,85.03186
474.00,85.02371
475.00,85.04074
476.00,85.02605
477.00,85.03391
478.00,85.07177
479.00,85.06093
480.00,85.06587
481.00,85.00832
482.00,84.99925
483.00,85.08072
484.00,85.02043
485.00,85.10604
486.00,85.11817
487.00,85.12028
488.00,85.09129
489.00,85.08545
490.00,85.10892
491.00,85.08239
492.00,85.11534
493.00,85.07560
494.00,85.13693
495.00,85.12930
496.00,85.11509
497.00,85.11418
498.00,85.13331
499.00,85.16119
500.00,85.09653
501.00,85.07569
502.00,85.14979
503.00,85.15918
504.00,85.15901
505.00,85.14101
506.00,85.13258
507.00,85.15052
508.00,85.18739
509.00,85.10200
510.00,85.20876
511.00,85.16933
512.00,85.16973
513.00,85.10606
514.00,85.16532
515.00,85.16211
516.00,85.13702
517.00,85.22087
518.00,85.16185
519.00,85.20398
520.00,85.21744
521.00,85.21720
522.00,85.19729
523.00,85.18521
524.00,85.18904
525.00,85.23048
526.00,85.23965
527.00,85.21096
528.00,85.15608
529.00,85.24522
530.00,85.22918
531.00,85.18376
532.00,85.20626
533.00,85.24265
534.00,85.21675
535.00,85.22543
536.00,85.17017
537.00,85.22879
538.00,85.24758
539.00,85.28673
540.00,85.29145
541.00,85.23383
542.00,85.24179
543.00,85.32534
544.00,85.25444
545.00,85.27857
546.00,85.28814
547.00,85.26937
548.00,85.29195
549.00,85.28028
550.00,85.29670
551.00,85.30561
552.00,85.32883
553.00,85.30511
554.00,85.30646
555.00,85.23842
556.00,85.26506
557.00,85.30312
558.00,85.37034
559.00,85.31841
560.00,85.29217
561.00,85.29980
562.00,85.34535
563.00,85.28404
564.00,85.34841
565.00,85.32333
566.00,85.27633
567.00,85.29446
568.00,85.28966
569.00,85.27774
570.00,85.35074
571.00,85.36227
572.00,85.34010
573.00,85.31792
574.00,85.31662
575.00,85.36614
576.00,85.34260
577.00,85.32748
578.00,85.37611
579.00,85.30868
580.00,85.35886
581.00,85.37529
582.00,85.38377
583.00,85.32863
584.00,85.36867
585.00,85.39259
586.00,85.35751
587.00,85.34797
588.00,85.37058
589.00,85.32006
590.00,85.40079
591.00,85.38898
592.00,85.39522
593.00,85.40854
594.00,85.42044
595.00,85.35979
596.00,85.42926
597.00,85.43696
598.00,85.40552
599.00,85.46609
600.00,85.39292
601.00,85.43373
602.00,85.43886
603.00,85.45399
604.00,85.49076
605.00,85.43059
606.00,85.41906
607.00,85.41712
608.00,85.48930
609.00,85.35315
610.00,85.44142
611.00,85.41627
612.00,85.45811
613.00,85.53464
614.00,85.44256
615.00,85.42519
616.00,85.42231
617.00,85.39063
618.00,85.42262
619.00,85.46134
620.00,85.47055
621.00,85.39813
622.00,85.41263
623.00,85.37831
624.00,85.41214
625.00,85.42717
626.00,85.43708
627.00,85.42688
628.00,85.48195
629.00,85.55176
630.00,85.52619
631.00,85.37246
632.00,85.44220
633.00,85.56431
634.00,85.41383
635.00,85.47875
636.00,85.48906
637.00,85.45600
638.00,85.46702
639.00,85.47676
640.00,85.47227
641.00,85.42727
642.00,85.48681
643.00,85.42475
644.00,85.57153
645.00,85.46145
646.00,85.40861
647.00,85.46465
648.00,85.48077
649.00,85.53725
650.00,85.44686
651.00,85.47705
652.00,85.51166
653.00,85.57705
654.00,85.53042
655.00,85.41954
656.00,85.52330
657.00,85.57274
658.00,85.55816
659.00,85.52423
660.00,85.46703
661.00,85.47975
662.00,85.53863
663.00,85.61642
664.00,85.57814
665.00,85.56044
666.00,85.53662
667.00,85.58589
668.00,85.58310
669.00,85.58744
670.00,85.56415
671.00,85.63626
672.00,85.58934
673.00,85.46431
674.00,85.61213
675.00,85.63725
676.00,85.65803
677.00,85.60755
678.00,85.61233
679.00,85.58317
680.00,85.59818
681.00,85.55151
682.00,85.72245
683.00,85.70026
684.00,85.73300
685.00,85.73964
686.00,85.60855
687.00,85.66524
688.00,85.75642
689.00,85.67426
690.00,85.69847
691.00,85.75123
692.00,85.72043
693.00,85.79059
694.00,85.70366
695.00,85.85132
696.00,85.75189
697.00,85.77557
698.00,85.88788
699.00,85.91865
700.00,85.94466
701.00,85.94628
702.00,85.95383
703.00,85.81093
704.00,85.90220
705.00,86.13102
706.00,85.90236
707.00,86.07768
708.00,86.07296
709.00,86.08053
710.00,86.03323
711.00,86.20697
712.00,86.07045
713.00,86.21175
714.00,86.27285
715.00,86.27136
716.00,86.29045
717.00,86.15974
718.00,86.18332
719.00,86.34120
720.00,86.32091
721.00,86.42930
722.00,86.39421
723.00,86.33289
724.00,86.21417
725.00,86.40222
726.00,86.42750
727.00,86.54863
728.00,86.44968
729.00,86.48483
730.00,86.45783
731.00,86.46866
732.00,86.32935
733.00,86.57528
734.00,86.59403
735.00,86.46757
736.00,86.62005
737.00,86.71478
738.00,86.84120
739.00,86.58972
740.00,86.73580
741.00,86.70978
742.00,86.54718
743.00,86.72438
744.00,86.86627
745.00,86.55633
746.00,86.58335
747.00,86.69342
748.00,86.86468
749.00,86.69868
750.00,86.70924
751.00,86.65128
752.00,86.46396
753.00,86.91154
754.00,86.91248
755.00,86.91806
756.00,86.76792
757.00,86.98875
758.00,86.72009
759.00,86.77071
760.00,86.76415
761.00,86.93349
762.00,86.63748
763.00,86.75076
764.00,86.93889
765.00,86.74412
766.00,86.99125
767.00,86.90271
768.00,86.92954
769.00,87.08587
770.00,87.01347
771.00,86.94907
772.00,86.70337
773.00,87.13110
774.00,86.86079
775.00,87.13295
776.00,87.01995
777.00,86.98236
778.00,86.96166
779.00,87.10873
780.00,87.26625
781.00,86.92002
782.00,86.86173
783.00,87.02599
784.00,87.14960
785.00,87.12971
786.00,86.88176
787.00,87.07213
788.00,87.01442
789.00,87.29357
790.00,87.35028
791.00,87.37450
792.00,87.10552
793.00,87.23655
794.00,87.39298
795.00,87.24701
796.00,87.32802
797.00,87.16627
798.00,87.21640
799.00,87.21439
800.00,87.48694
