"DPSapphireNormal - RawData"
"Wavelength nm.","T%"
200.00,78.87900
201.00,78.43326
202.00,79.71314
203.00,79.47687
204.00,82.68201
205.00,80.41482
206.00,80.57632
207.00,80.09657
208.00,79.54349
209.00,82.17186
210.00,80.55835
211.00,80.93613
212.00,81.36651
213.00,82.11378
214.00,82.19235
215.00,81.35768
216.00,81.67953
217.00,81.91464
218.00,81.53369
219.00,81.68954
220.00,81.81026
221.00,81.98317
222.00,82.50081
223.00,81.91879
224.00,81.72001
225.00,81.52469
226.00,81.39156
227.00,81.66344
228.00,81.96465
229.00,81.67123
230.00,82.64793
231.00,82.48253
232.00,82.61679
233.00,82.98324
234.00,82.49962
235.00,83.07275
236.00,82.86714
237.00,82.66993
238.00,82.62573
239.00,82.94473
240.00,83.14025
241.00,82.92384
242.00,83.33349
243.00,83.12784
244.00,83.27314
245.00,82.93502
246.00,83.36560
247.00,82.89542
248.00,82.93383
249.00,83.45389
250.00,82.94007
251.00,83.50738
252.00,83.39522
253.00,83.50452
254.00,83.47940
255.00,83.38535
256.00,83.36076
257.00,83.59849
258.00,83.48440
259.00,83.53374
260.00,83.73776
261.00,83.77489
262.00,83.48753
263.00,83.55890
264.00,83.59268
265.00,84.07409
266.00,83.64815
267.00,83.78686
268.00,84.14562
269.00,84.19613
270.00,84.00177
271.00,83.74064
272.00,84.24779
273.00,83.73040
274.00,83.86986
275.00,83.87829
276.00,84.33418
277.00,84.24551
278.00,84.20275
279.00,84.02594
280.00,84.27444
281.00,84.13414
282.00,84.12775
283.00,84.20812
284.00,84.09497
285.00,84.26660
286.00,84.26926
287.00,84.31112
288.00,84.58580
289.00,84.14339
290.00,84.48970
291.00,84.22930
292.00,84.40193
293.00,84.46844
294.00,84.53269
295.00,84.61968
296.00,84.49467
297.00,84.47087
298.00,84.28870
299.00,84.54349
300.00,84.64782
301.00,84.36366
302.00,84.47168
303.00,84.31695
304.00,84.67697
305.00,84.58778
306.00,84.25313
307.00,84.19808
308.00,84.62578
309.00,84.55846
310.00,84.51835
311.00,84.43022
312.00,84.83280
313.00,84.47224
314.00,84.42270
315.00,84.33789
316.00,84.54030
317.00,84.76372
318.00,84.71684
319.00,84.58498
320.00,84.76845
321.00,84.64569
322.00,84.84371
323.00,84.86653
324.00,84.79962
325.00,84.51653
326.00,84.27402
327.00,84.47854
328.00,84.34526
329.00,84.43945
330.00,84.46694
331.00,84.69453
332.00,84.50710
333.00,84.84010
334.00,84.29865
335.00,84.69285
336.00,84.77060
337.00,84.37644
338.00,84.62315
339.00,84.58902
340.00,84.43137
341.00,85.04571
342.00,84.94974
343.00,84.68651
344.00,84.78570
345.00,84.70023
346.00,84.63594
347.00,84.76587
348.00,84.81723
349.00,84.81447
350.00,84.71236
351.00,84.47989
352.00,84.94900
353.00,84.78088
354.00,84.90369
355.00,84.77241
356.00,84.69884
357.00,84.69543
358.00,84.78469
359.00,84.94818
360.00,85.00829
361.00,84.75969
362.00,84.45246
363.00,84.94567
364.00,84.61574
365.00,84.81057
366.00,84.99169
367.00,84.79750
368.00,85.06628
369.00,84.81041
370.00,84.90883
371.00,84.64588
372.00,84.91503
373.00,84.95857
374.00,85.09671
375.00,84.89174
376.00,84.78169
377.00,84.90903
378.00,84.97698
379.00,84.93198
380.00,84.96554
381.00,85.00531
382.00,85.01990
383.00,85.02400
384.00,85.09105
385.00,84.85785
386.00,84.95789
387.00,85.09138
388.00,85.10652
389.00,85.11772
390.00,84.91129
391.00,85.09004
392.00,85.04267
393.00,85.02281
394.00,85.02963
395.00,84.99963
396.00,85.04764
397.00,85.04214
398.00,84.94495
399.00,85.01438
400.00,85.06286
401.00,84.98604
402.00,85.03796
403.00,85.08382
404.00,84.95455
405.00,85.05743
406.00,85.31265
407.00,85.07344
408.00,85.07609
409.00,85.06157
410.00,85.11906
411.00,84.99876
412.00,85.07250
413.00,85.12685
414.00,85.09872
415.00,85.19194
416.00,85.25373
417.00,84.97406
418.00,85.12574
419.00,85.08160
420.00,85.10330
421.00,85.16120
422.00,85.11021
423.00,85.05576
424.00,85.16091
425.00,85.10990
426.00,85.16111
427.00,85.23114
428.00,85.07047
429.00,85.17144
430.00,85.24878
431.00,85.13650
432.00,85.14611
433.00,85.31673
434.00,85.24786
435.00,85.26800
436.00,85.31201
437.00,85.18672
438.00,85.19295
439.00,85.26018
440.00,85.23523
441.00,85.19849
442.00,85.15671
443.00,85.26228
444.00,85.37166
445.00,85.14637
446.00,85.24948
447.00,85.18404
448.00,85.27175
449.00,85.23952
450.00,85.36659
451.00,85.25606
452.00,85.24541
453.00,85.25223
454.00,85.30313
455.00,85.20657
456.00,85.25106
457.00,85.26303
458.00,85.19174
459.00,85.21863
460.00,85.34897
461.00,85.25581
462.00,85.40342
463.00,85.29286
464.00,85.36289
465.00,85.43116
466.00,85.22778
467.00,85.32971
468.00,85.33078
469.00,85.34390
470.00,85.35904
471.00,85.14975
472.00,85.31314
473.00,85.35236
474.00,85.33456
475.00,85.40842
476.00,85.20336
477.00,85.31736
478.00,85.34033
479.00,85.35524
480.00,85.32345
481.00,85.36026
482.00,85.25989
483.00,85.30752
484.00,85.40329
485.00,85.39835
486.00,85.32406
487.00,85.29738
488.00,85.21056
489.00,85.43501
490.00,85.24811
491.00,85.36323
492.00,85.35663
493.00,85.37402
494.00,85.28593
495.00,85.35680
496.00,85.51913
497.00,85.33316
498.00,85.41596
499.00,85.40910
500.00,85.39831
501.00,85.43627
502.00,85.32569
503.00,85.43660
504.00,85.28153
505.00,85.43380
506.00,85.36461
507.00,85.30947
508.00,85.33069
509.00,85.29712
510.00,85.47058
511.00,85.46221
512.00,85.44937
513.00,85.42511
514.00,85.35808
515.00,85.40883
516.00,85.41488
517.00,85.41555
518.00,85.41458
519.00,85.44927
520.00,85.39608
521.00,85.37396
522.00,85.48450
523.00,85.40863
524.00,85.46690
525.00,85.48081
526.00,85.50189
527.00,85.42130
528.00,85.46263
529.00,85.37985
530.00,85.43637
531.00,85.37351
532.00,85.38239
533.00,85.46781
534.00,85.43526
535.00,85.37643
536.00,85.50793
537.00,85.52783
538.00,85.56193
539.00,85.50556
540.00,85.51422
541.00,85.54063
542.00,85.49154
543.00,85.51934
544.00,85.52048
545.00,85.58868
546.00,85.56491
547.00,85.59622
548.00,85.51690
549.00,85.48897
550.00,85.52684
551.00,85.55935
552.00,85.58568
553.00,85.59086
554.00,85.56032
555.00,85.45789
556.00,85.57374
557.00,85.51823
558.00,85.55729
559.00,85.54334
560.00,85.59065
561.00,85.59644
562.00,85.46424
563.00,85.62286
564.00,85.57999
565.00,85.63923
566.00,85.50768
567.00,85.62038
568.00,85.56361
569.00,85.56311
570.00,85.55834
571.00,85.44866
572.00,85.59148
573.00,85.54596
574.00,85.64389
575.00,85.60916
576.00,85.57838
577.00,85.44780
578.00,85.49898
579.00,85.57827
580.00,85.52910
581.00,85.56392
582.00,85.53688
583.00,85.61304
584.00,85.61715
585.00,85.58082
586.00,85.51535
587.00,85.65887
588.00,85.61707
589.00,85.45148
590.00,85.56648
591.00,85.60540
592.00,85.58927
593.00,85.57622
594.00,85.60852
595.00,85.59678
596.00,85.66649
597.00,85.59883
598.00,85.48388
599.00,85.61910
600.00,85.49977
601.00,85.53807
602.00,85.51597
603.00,85.61885
604.00,85.62520
605.00,85.63635
606.00,85.55160
607.00,85.57785
608.00,85.67479
609.00,85.64469
610.00,85.67358
611.00,85.52183
612.00,85.62086
613.00,85.67305
614.00,85.61606
615.00,85.61247
616.00,85.64566
617.00,85.57962
618.00,85.67033
619.00,85.57647
620.00,85.61263
621.00,85.69219
622.00,85.52803
623.00,85.68450
624.00,85.63822
625.00,85.66778
626.00,85.72682
627.00,85.68521
628.00,85.68282
629.00,85.64824
630.00,85.65807
631.00,85.60213
632.00,85.67283
633.00,85.59561
634.00,85.64087
635.00,85.71787
636.00,85.69259
637.00,85.70054
638.00,85.70026
639.00,85.59849
640.00,85.63560
641.00,85.64905
642.00,85.58360
643.00,85.65310
644.00,85.61105
645.00,85.74486
646.00,85.69156
647.00,85.71231
648.00,85.67874
649.00,85.71677
650.00,85.74278
651.00,85.61367
652.00,85.71581
653.00,85.77387
654.00,85.78579
655.00,85.64862
656.00,85.79537
657.00,85.74609
658.00,85.61470
659.00,85.71665
660.00,85.86023
661.00,85.77678
662.00,85.81549
663.00,85.68779
664.00,85.80151
665.00,85.69517
666.00,85.66820
667.00,85.69881
668.00,85.76227
669.00,85.77983
670.00,85.70205
671.00,85.85719
672.00,85.75093
673.00,85.74298
674.00,85.70741
675.00,85.73323
676.00,85.76288
677.00,85.82044
678.00,85.76167
679.00,85.66687
680.00,85.73489
681.00,85.69844
682.00,85.79515
683.00,85.68309
684.00,85.82336
685.00,85.94213
686.00,85.72979
687.00,85.83770
688.00,85.80567
689.00,85.85976
690.00,85.73230
691.00,85.84352
692.00,85.76650
693.00,85.78274
694.00,85.71238
695.00,85.78569
696.00,85.86559
697.00,85.86176
698.00,85.88131
699.00,85.82100
700.00,85.85839
701.00,85.88673
702.00,85.78845
703.00,85.84397
704.00,85.80776
705.00,85.72270
706.00,85.77521
707.00,85.92064
708.00,85.87810
709.00,85.94512
710.00,85.85331
711.00,85.81592
712.00,85.76031
713.00,85.81771
714.00,85.81146
715.00,85.89607
716.00,85.91498
717.00,85.88192
718.00,85.86127
719.00,85.87614
720.00,85.84692
721.00,85.98940
722.00,85.95003
723.00,86.08055
724.00,85.75127
725.00,85.86533
726.00,86.01732
727.00,85.77683
728.00,85.77095
729.00,85.87103
730.00,85.96880
731.00,85.83549
732.00,85.78406
733.00,86.07622
734.00,86.17444
735.00,85.97001
736.00,85.93929
737.00,85.93628
738.00,86.06342
739.00,85.82537
740.00,85.95860
741.00,85.88850
742.00,86.02706
743.00,86.08401
744.00,85.74821
745.00,85.74907
746.00,85.84487
747.00,86.09343
748.00,85.77019
749.00,86.14001
750.00,86.06570
751.00,85.99170
752.00,86.02005
753.00,86.09978
754.00,86.11436
755.00,86.04122
756.00,86.01577
757.00,86.20098
758.00,85.75229
759.00,85.80652
760.00,85.75212
761.00,86.04773
762.00,86.33649
763.00,85.81134
764.00,86.26475
765.00,86.10861
766.00,86.13483
767.00,85.84310
768.00,85.79925
769.00,86.01394
770.00,86.10828
771.00,85.93800
772.00,86.03768
773.00,86.02551
774.00,85.70142
775.00,86.10496
776.00,86.14841
777.00,85.81842
778.00,85.80654
779.00,86.08130
780.00,86.09602
781.00,86.11535
782.00,85.86951
783.00,85.88380
784.00,85.53749
785.00,86.05354
786.00,86.18442
787.00,86.13603
788.00,85.95666
789.00,86.06061
790.00,86.01741
791.00,85.61856
792.00,86.53636
793.00,85.99994
794.00,85.80678
795.00,85.92030
796.00,86.10531
797.00,86.25343
798.00,86.21485
799.00,86.05757
800.00,86.03047
