"DPSapphireV10VSlow - RawData"
"Wavelength nm.","T%"
200.00,78.86642
201.00,79.35956
202.00,79.34183
203.00,79.38377
204.00,79.61642
205.00,81.96232
206.00,79.83804
207.00,80.73358
208.00,81.02212
209.00,80.66539
210.00,81.49612
211.00,81.04163
212.00,81.44869
213.00,81.34935
214.00,81.43189
215.00,81.60127
216.00,81.18864
217.00,81.47460
218.00,81.42832
219.00,81.66057
220.00,81.83435
221.00,81.89873
222.00,81.62057
223.00,82.20540
224.00,81.93052
225.00,82.17790
226.00,82.16787
227.00,82.10610
228.00,82.47645
229.00,82.28542
230.00,82.73639
231.00,82.63555
232.00,82.51319
233.00,82.74397
234.00,82.90338
235.00,83.11158
236.00,83.10823
237.00,83.08583
238.00,83.33548
239.00,83.04041
240.00,83.47645
241.00,83.33828
242.00,83.13656
243.00,83.39955
244.00,83.32961
245.00,83.39007
246.00,83.47546
247.00,83.12109
248.00,83.40275
249.00,83.31573
250.00,83.73852
251.00,83.40962
252.00,83.41850
253.00,83.73204
254.00,83.51713
255.00,83.66536
256.00,83.60028
257.00,83.90260
258.00,83.68633
259.00,83.83577
260.00,83.77141
261.00,83.51620
262.00,83.69997
263.00,83.78173
264.00,83.83222
265.00,83.70056
266.00,83.80989
267.00,84.01226
268.00,83.76448
269.00,84.00364
270.00,83.82275
271.00,84.16403
272.00,83.90301
273.00,84.01276
274.00,84.06359
275.00,83.98952
276.00,83.74749
277.00,84.04714
278.00,83.96501
279.00,84.06805
280.00,84.15530
281.00,84.15893
282.00,84.16786
283.00,84.23353
284.00,84.27674
285.00,84.10889
286.00,84.17217
287.00,84.29888
288.00,84.34157
289.00,84.27263
290.00,84.48659
291.00,84.40802
292.00,84.16998
293.00,84.56233
294.00,84.33937
295.00,84.26011
296.00,84.30832
297.00,84.14768
298.00,84.30172
299.00,84.35841
300.00,84.42386
301.00,84.48889
302.00,84.34185
303.00,84.31394
304.00,84.51622
305.00,84.54191
306.00,84.22986
307.00,84.33796
308.00,84.52318
309.00,84.68592
310.00,84.40069
311.00,84.38961
312.00,84.63334
313.00,84.39463
314.00,84.66356
315.00,84.45813
316.00,84.54903
317.00,84.64845
318.00,84.55312
319.00,84.38788
320.00,84.56770
321.00,84.41809
322.00,84.54314
323.00,84.61313
324.00,84.49623
325.00,84.20920
326.00,84.19547
327.00,84.39043
328.00,84.51942
329.00,84.46784
330.00,84.38494
331.00,84.14692
332.00,84.19836
333.00,84.30912
334.00,84.46028
335.00,84.54233
336.00,84.45116
337.00,84.31135
338.00,84.57071
339.00,84.50317
340.00,84.44247
341.00,84.52946
342.00,84.47528
343.00,84.44026
344.00,84.57302
345.00,84.68906
346.00,84.48089
347.00,84.55385
348.00,84.48353
349.00,84.67017
350.00,84.60893
351.00,84.63460
352.00,84.58340
353.00,84.64865
354.00,84.40077
355.00,84.64400
356.00,84.54049
357.00,84.83742
358.00,84.66451
359.00,84.74269
360.00,84.62794
361.00,84.61782
362.00,84.85129
363.00,84.68522
364.00,84.56452
365.00,84.76042
366.00,84.63919
367.00,84.64104
368.00,84.63388
369.00,84.83005
370.00,84.82479
371.00,84.88161
372.00,84.89191
373.00,84.70833
374.00,84.74743
375.00,84.74723
376.00,84.59503
377.00,84.84849
378.00,84.81308
379.00,84.74299
380.00,84.77653
381.00,84.69025
382.00,84.62610
383.00,84.75708
384.00,84.86708
385.00,84.68626
386.00,84.77618
387.00,84.65338
388.00,84.77083
389.00,84.70476
390.00,84.74628
391.00,84.75915
392.00,84.68074
393.00,84.79513
394.00,84.82304
395.00,84.80489
396.00,84.85081
397.00,84.72968
398.00,84.87107
399.00,84.71810
400.00,84.97825
401.00,84.86408
402.00,84.93936
403.00,84.84450
404.00,84.83958
405.00,84.90601
406.00,84.85562
407.00,84.85686
408.00,84.93260
409.00,84.83932
410.00,84.94566
411.00,84.86879
412.00,84.95066
413.00,84.89490
414.00,84.90942
415.00,84.93809
416.00,84.94157
417.00,84.86902
418.00,84.97338
419.00,84.90551
420.00,84.96554
421.00,84.94378
422.00,84.88681
423.00,84.93549
424.00,84.83468
425.00,84.99309
426.00,84.95550
427.00,84.97164
428.00,84.95185
429.00,85.00014
430.00,84.89956
431.00,85.00535
432.00,84.96836
433.00,85.01678
434.00,84.97183
435.00,84.93214
436.00,84.97042
437.00,85.04192
438.00,85.01062
439.00,85.05225
440.00,84.98871
441.00,85.08161
442.00,84.97155
443.00,84.99411
444.00,85.02179
445.00,85.05098
446.00,85.07397
447.00,85.05030
448.00,85.07341
449.00,85.06270
450.00,85.14412
451.00,85.11780
452.00,85.17464
453.00,85.12771
454.00,85.17964
455.00,85.02785
456.00,85.07268
457.00,85.14276
458.00,85.10121
459.00,85.09166
460.00,85.07960
461.00,85.10180
462.00,85.11203
463.00,85.19293
464.00,85.18134
465.00,85.16142
466.00,85.11245
467.00,85.17428
468.00,85.14494
469.00,85.11755
470.00,85.15049
471.00,85.12291
472.00,85.14030
473.00,85.07723
474.00,85.13837
475.00,85.09097
476.00,85.16420
477.00,85.13876
478.00,85.13775
479.00,85.18540
480.00,85.23731
481.00,85.13449
482.00,85.10125
483.00,85.25178
484.00,85.14870
485.00,85.22232
486.00,85.18236
487.00,85.18885
488.00,85.11770
489.00,85.15695
490.00,85.22793
491.00,85.18661
492.00,85.24728
493.00,85.18282
494.00,85.19934
495.00,85.22388
496.00,85.20563
497.00,85.15956
498.00,85.22826
499.00,85.27124
500.00,85.22583
501.00,85.17611
502.00,85.25183
503.00,85.23502
504.00,85.22651
505.00,85.17787
506.00,85.24962
507.00,85.24897
508.00,85.26365
509.00,85.24022
510.00,85.26513
511.00,85.27021
512.00,85.24135
513.00,85.22705
514.00,85.27694
515.00,85.24159
516.00,85.21097
517.00,85.30450
518.00,85.18412
519.00,85.26441
520.00,85.28185
521.00,85.27270
522.00,85.27282
523.00,85.27268
524.00,85.24621
525.00,85.26927
526.00,85.31204
527.00,85.25411
528.00,85.26887
529.00,85.33263
530.00,85.31238
531.00,85.31817
532.00,85.32898
533.00,85.36423
534.00,85.31458
535.00,85.27890
536.00,85.29251
537.00,85.32654
538.00,85.35063
539.00,85.34721
540.00,85.36947
541.00,85.31254
542.00,85.34837
543.00,85.37357
544.00,85.37050
545.00,85.38500
546.00,85.35061
547.00,85.39056
548.00,85.34089
549.00,85.39067
550.00,85.38821
551.00,85.37311
552.00,85.41713
553.00,85.43047
554.00,85.34633
555.00,85.33722
556.00,85.37191
557.00,85.45217
558.00,85.44351
559.00,85.33800
560.00,85.39460
561.00,85.35926
562.00,85.38872
563.00,85.44365
564.00,85.40165
565.00,85.40943
566.00,85.45294
567.00,85.43670
568.00,85.42198
569.00,85.41952
570.00,85.48784
571.00,85.41565
572.00,85.37924
573.00,85.41496
574.00,85.47293
575.00,85.42616
576.00,85.44676
577.00,85.44590
578.00,85.43160
579.00,85.37492
580.00,85.42685
581.00,85.47832
582.00,85.45714
583.00,85.39569
584.00,85.43993
585.00,85.44427
586.00,85.47536
587.00,85.43047
588.00,85.44396
589.00,85.40542
590.00,85.47661
591.00,85.44210
592.00,85.45178
593.00,85.49389
594.00,85.49976
595.00,85.50022
596.00,85.48753
597.00,85.49344
598.00,85.48321
599.00,85.51709
600.00,85.52942
601.00,85.49909
602.00,85.51970
603.00,85.54022
604.00,85.50243
605.00,85.52940
606.00,85.43842
607.00,85.46597
608.00,85.59716
609.00,85.44962
610.00,85.47947
611.00,85.48231
612.00,85.52157
613.00,85.60837
614.00,85.53593
615.00,85.50729
616.00,85.51582
617.00,85.48380
618.00,85.49868
619.00,85.54455
620.00,85.57367
621.00,85.54986
622.00,85.52559
623.00,85.49431
624.00,85.49864
625.00,85.55182
626.00,85.55750
627.00,85.44427
628.00,85.55265
629.00,85.51728
630.00,85.58990
631.00,85.50918
632.00,85.55118
633.00,85.61261
634.00,85.53465
635.00,85.54596
636.00,85.58728
637.00,85.53356
638.00,85.57252
639.00,85.60807
640.00,85.51419
641.00,85.50231
642.00,85.60895
643.00,85.55492
644.00,85.60243
645.00,85.55008
646.00,85.59602
647.00,85.59350
648.00,85.56764
649.00,85.59624
650.00,85.56764
651.00,85.55142
652.00,85.59493
653.00,85.67703
654.00,85.61953
655.00,85.57559
656.00,85.60472
657.00,85.62796
658.00,85.67159
659.00,85.64261
660.00,85.61966
661.00,85.62262
662.00,85.70112
663.00,85.67003
664.00,85.67339
665.00,85.77045
666.00,85.70808
667.00,85.61008
668.00,85.73260
669.00,85.74145
670.00,85.67054
671.00,85.76117
672.00,85.65492
673.00,85.64200
674.00,85.76615
675.00,85.68262
676.00,85.73846
677.00,85.69270
678.00,85.67812
679.00,85.84511
680.00,85.67750
681.00,85.79172
682.00,85.80995
683.00,85.69760
684.00,85.82290
685.00,85.84623
686.00,85.76405
687.00,85.68242
688.00,85.82966
689.00,85.75103
690.00,85.87778
691.00,85.92464
692.00,85.89613
693.00,85.91704
694.00,85.87282
695.00,86.01567
696.00,85.97044
697.00,85.96694
698.00,85.99975
699.00,85.97143
700.00,86.12000
701.00,85.98459
702.00,86.16331
703.00,86.07419
704.00,86.06833
705.00,86.24973
706.00,86.13151
707.00,86.24679
708.00,86.25801
709.00,86.24544
710.00,86.35774
711.00,86.34207
712.00,86.29898
713.00,86.33877
714.00,86.47452
715.00,86.34948
716.00,86.43513
717.00,86.31791
718.00,86.36100
719.00,86.46947
720.00,86.46742
721.00,86.41976
722.00,86.54756
723.00,86.53868
724.00,86.42337
725.00,86.64098
726.00,86.54482
727.00,86.65407
728.00,86.62142
729.00,86.66103
730.00,86.82387
731.00,86.62735
732.00,86.58794
733.00,86.72658
734.00,86.80069
735.00,86.78198
736.00,86.74460
737.00,86.75155
738.00,86.84629
739.00,86.87859
740.00,86.85126
741.00,86.77197
742.00,86.79933
743.00,86.93520
744.00,86.88093
745.00,86.81303
746.00,86.82824
747.00,86.86929
748.00,86.89305
749.00,86.87723
750.00,86.87115
751.00,87.04092
752.00,86.78278
753.00,87.06452
754.00,87.07535
755.00,87.17659
756.00,86.98847
757.00,87.09120
758.00,86.85491
759.00,86.93839
760.00,87.00739
761.00,86.95510
762.00,87.09176
763.00,87.03967
764.00,87.01168
765.00,87.13047
766.00,87.29209
767.00,87.02090
768.00,86.99380
769.00,87.15527
770.00,87.24386
771.00,87.02868
772.00,87.13545
773.00,87.03739
774.00,87.10214
775.00,87.16701
776.00,87.16143
777.00,87.23076
778.00,87.23089
779.00,87.08869
780.00,87.49807
781.00,87.05931
782.00,87.15527
783.00,87.11071
784.00,87.46068
785.00,87.44678
786.00,87.15801
787.00,87.16758
788.00,87.12169
789.00,87.17101
790.00,87.37240
791.00,87.43594
792.00,87.33311
793.00,87.36588
794.00,87.51668
795.00,87.46433
796.00,87.65708
797.00,87.38331
798.00,87.39787
799.00,87.38021
800.00,87.66301
