"PostItNotePaintedSR - RawData"
"Wavelength nm.","R%"
190.00,60.95008
191.00,37.21608
192.00,37.15798
193.00,43.99607
194.00,31.20612
195.00,29.11103
196.00,28.74244
197.00,32.19391
198.00,25.85964
199.00,23.08605
200.00,21.99136
201.00,20.49925
202.00,17.64608
203.00,17.71364
204.00,16.82465
205.00,14.58147
206.00,14.10122
207.00,14.02812
208.00,13.08471
209.00,12.38446
210.00,11.51499
211.00,11.58061
212.00,11.56947
213.00,10.60920
214.00,10.10723
215.00,9.95380
216.00,9.62417
217.00,9.28273
218.00,9.68681
219.00,9.20144
220.00,9.19335
221.00,8.81319
222.00,8.77805
223.00,8.57076
224.00,8.25177
225.00,7.99408
226.00,7.77629
227.00,7.76372
228.00,7.51703
229.00,7.46166
230.00,7.16994
231.00,7.03895
232.00,6.85179
233.00,6.69672
234.00,6.42384
235.00,6.35143
236.00,6.21282
237.00,6.02559
238.00,6.03163
239.00,5.80820
240.00,5.69999
241.00,5.54327
242.00,5.48412
243.00,5.38740
244.00,5.26394
245.00,5.06794
246.00,5.00271
247.00,4.95112
248.00,4.87364
249.00,4.72816
250.00,4.72835
251.00,4.58478
252.00,4.52666
253.00,4.43385
254.00,4.41027
255.00,4.28886
256.00,4.27235
257.00,4.27785
258.00,4.24013
259.00,4.22947
260.00,4.19047
261.00,4.18730
262.00,4.12081
263.00,4.12748
264.00,4.11008
265.00,4.15728
266.00,4.06157
267.00,4.03911
268.00,4.09181
269.00,4.03351
270.00,4.01283
271.00,4.02573
272.00,4.05723
273.00,3.99456
274.00,4.00067
275.00,3.98269
276.00,3.96000
277.00,3.96519
278.00,3.90810
279.00,3.92288
280.00,3.92251
281.00,3.85385
282.00,3.91634
283.00,3.82106
284.00,3.80333
285.00,3.76788
286.00,3.78275
287.00,3.70492
288.00,3.65778
289.00,3.62086
290.00,3.67670
291.00,3.59624
292.00,3.54835
293.00,3.54083
294.00,3.54954
295.00,3.47542
296.00,3.51387
297.00,3.47145
298.00,3.46852
299.00,3.44993
300.00,3.41379
301.00,3.42598
302.00,3.32914
303.00,3.38311
304.00,3.30363
305.00,3.32451
306.00,3.32755
307.00,3.30172
308.00,3.24772
309.00,3.32173
310.00,3.25416
311.00,3.30451
312.00,3.22489
313.00,3.17234
314.00,3.22383
315.00,3.22302
316.00,3.12673
317.00,3.17141
318.00,3.11676
319.00,3.12750
320.00,3.15700
321.00,3.15136
322.00,3.09605
323.00,3.15127
324.00,3.10241
325.00,3.06360
326.00,3.09861
327.00,3.05521
328.00,3.06095
329.00,3.03148
330.00,3.02994
331.00,3.06027
332.00,3.06045
333.00,3.00338
334.00,3.00800
335.00,3.02721
336.00,2.99210
337.00,3.02176
338.00,3.00632
339.00,2.94328
340.00,2.97024
341.00,2.97029
342.00,2.96958
343.00,2.97705
344.00,2.93261
345.00,2.93902
346.00,2.91227
347.00,2.91305
348.00,2.94518
349.00,2.91265
350.00,2.92402
351.00,2.87354
352.00,2.91243
353.00,2.89242
354.00,2.90618
355.00,2.91042
356.00,2.86964
357.00,2.88189
358.00,2.84221
359.00,2.85567
360.00,2.88089
361.00,2.85891
362.00,2.86586
363.00,2.87092
364.00,2.85003
365.00,2.80893
366.00,2.79399
367.00,2.82327
368.00,2.79817
369.00,2.82702
370.00,2.81753
371.00,2.81875
372.00,2.79913
373.00,2.81918
374.00,2.79206
375.00,2.78772
376.00,2.76466
377.00,2.77764
378.00,2.78817
379.00,2.78617
380.00,2.78519
381.00,2.75851
382.00,2.76204
383.00,2.75933
384.00,2.77596
385.00,2.78278
386.00,2.76144
387.00,2.75568
388.00,2.74618
389.00,2.75037
390.00,2.76135
391.00,2.74839
392.00,2.73873
393.00,2.72910
394.00,2.74062
395.00,2.74757
396.00,2.73556
397.00,2.72134
398.00,2.73352
399.00,2.72559
400.00,2.71216
401.00,2.72510
402.00,2.72872
403.00,2.70917
404.00,2.73038
405.00,2.72223
406.00,2.70051
407.00,2.72190
408.00,2.71383
409.00,2.71369
410.00,2.70998
411.00,2.70828
412.00,2.69001
413.00,2.69413
414.00,2.70791
415.00,2.68938
416.00,2.69709
417.00,2.68948
418.00,2.68517
419.00,2.69838
420.00,2.68375
421.00,2.69841
422.00,2.69542
423.00,2.67858
424.00,2.69025
425.00,2.68280
426.00,2.68001
427.00,2.67260
428.00,2.67506
429.00,2.67993
430.00,2.67054
431.00,2.67416
432.00,2.68932
433.00,2.66646
434.00,2.67326
435.00,2.67584
436.00,2.67093
437.00,2.66660
438.00,2.67165
439.00,2.66548
440.00,2.66022
441.00,2.66414
442.00,2.65448
443.00,2.65713
444.00,2.66972
445.00,2.67206
446.00,2.65277
447.00,2.64905
448.00,2.66365
449.00,2.65145
450.00,2.65131
451.00,2.65839
452.00,2.64809
453.00,2.65314
454.00,2.64800
455.00,2.65086
456.00,2.64449
457.00,2.65024
458.00,2.65531
459.00,2.64979
460.00,2.66293
461.00,2.65485
462.00,2.65626
463.00,2.64924
464.00,2.64510
465.00,2.64181
466.00,2.64755
467.00,2.64504
468.00,2.65012
469.00,2.64015
470.00,2.64360
471.00,2.64469
472.00,2.64486
473.00,2.63881
474.00,2.63917
475.00,2.65342
476.00,2.64669
477.00,2.65188
478.00,2.64517
479.00,2.65212
480.00,2.64271
481.00,2.64735
482.00,2.63990
483.00,2.65731
484.00,2.65414
485.00,2.65572
486.00,2.65179
487.00,2.65121
488.00,2.64142
489.00,2.64553
490.00,2.64652
491.00,2.65240
492.00,2.64089
493.00,2.64569
494.00,2.63458
495.00,2.63923
496.00,2.64146
497.00,2.63937
498.00,2.63242
499.00,2.64824
500.00,2.63342
501.00,2.64594
502.00,2.63391
503.00,2.63116
504.00,2.63315
505.00,2.63100
506.00,2.64101
507.00,2.63120
508.00,2.63486
509.00,2.64016
510.00,2.65242
511.00,2.61949
512.00,2.63331
513.00,2.62438
514.00,2.63792
515.00,2.62110
516.00,2.62600
517.00,2.62441
518.00,2.63285
519.00,2.63928
520.00,2.61780
521.00,2.62160
522.00,2.62301
523.00,2.61733
524.00,2.62214
525.00,2.62098
526.00,2.62079
527.00,2.62610
528.00,2.60478
529.00,2.63128
530.00,2.62676
531.00,2.62013
532.00,2.62572
533.00,2.61521
534.00,2.62097
535.00,2.63083
536.00,2.61692
537.00,2.62874
538.00,2.62093
539.00,2.61429
540.00,2.62633
541.00,2.62745
542.00,2.62486
543.00,2.61442
544.00,2.61923
545.00,2.62136
546.00,2.61893
547.00,2.62435
548.00,2.63161
549.00,2.63011
550.00,2.62708
551.00,2.63423
552.00,2.63189
553.00,2.63962
554.00,2.64142
555.00,2.63158
556.00,2.63349
557.00,2.63184
558.00,2.63717
559.00,2.62967
560.00,2.64257
561.00,2.62846
562.00,2.64641
563.00,2.64627
564.00,2.64719
565.00,2.64364
566.00,2.63982
567.00,2.65667
568.00,2.65543
569.00,2.65869
570.00,2.66232
571.00,2.66977
572.00,2.66833
573.00,2.67756
574.00,2.67546
575.00,2.67521
576.00,2.67674
577.00,2.67987
578.00,2.69926
579.00,2.70003
580.00,2.68870
581.00,2.71179
582.00,2.70381
583.00,2.70946
584.00,2.70618
585.00,2.72055
586.00,2.71619
587.00,2.72054
588.00,2.72442
589.00,2.71665
590.00,2.72984
591.00,2.73076
592.00,2.73738
593.00,2.73523
594.00,2.75252
595.00,2.74639
596.00,2.76581
597.00,2.77075
598.00,2.76312
599.00,2.77351
600.00,2.77015
601.00,2.77387
602.00,2.78206
603.00,2.78943
604.00,2.79140
605.00,2.80000
606.00,2.80188
607.00,2.80186
608.00,2.80078
609.00,2.81917
610.00,2.80718
611.00,2.82638
612.00,2.82620
613.00,2.82626
614.00,2.82990
615.00,2.83826
616.00,2.84316
617.00,2.85884
618.00,2.85919
619.00,2.86480
620.00,2.86853
621.00,2.87429
622.00,2.87416
623.00,2.89101
624.00,2.88416
625.00,2.88745
626.00,2.89290
627.00,2.89299
628.00,2.90155
629.00,2.91080
630.00,2.91488
631.00,2.91899
632.00,2.92044
633.00,2.93149
634.00,2.94577
635.00,2.94609
636.00,2.93411
637.00,2.94174
638.00,2.95660
639.00,2.96246
640.00,2.97371
641.00,2.98004
642.00,2.98182
643.00,2.99288
644.00,2.99277
645.00,2.98182
646.00,3.01427
647.00,3.00735
648.00,3.04371
649.00,3.03911
650.00,3.02962
651.00,3.03417
652.00,3.04731
653.00,3.04776
654.00,3.04934
655.00,3.06155
656.00,3.07821
657.00,3.07330
658.00,3.08769
659.00,3.07969
660.00,3.10366
661.00,3.10797
662.00,3.10430
663.00,3.12136
664.00,3.11077
665.00,3.13121
666.00,3.13599
667.00,3.15300
668.00,3.13678
669.00,3.15662
670.00,3.17307
671.00,3.18346
672.00,3.17711
673.00,3.18322
674.00,3.20575
675.00,3.19668
676.00,3.19920
677.00,3.21865
678.00,3.21850
679.00,3.23331
680.00,3.24185
681.00,3.23354
682.00,3.24914
683.00,3.28037
684.00,3.27656
685.00,3.26411
686.00,3.29395
687.00,3.31201
688.00,3.30330
689.00,3.31056
690.00,3.31219
691.00,3.31953
692.00,3.33048
693.00,3.33633
694.00,3.34801
695.00,3.37063
696.00,3.35927
697.00,3.38841
698.00,3.37175
699.00,3.37529
700.00,3.39826
701.00,3.41277
702.00,3.42170
703.00,3.44076
704.00,3.41377
705.00,3.46856
706.00,3.47021
707.00,3.44851
708.00,3.49713
709.00,3.48635
710.00,3.49423
711.00,3.50583
712.00,3.51332
713.00,3.52143
714.00,3.50701
715.00,3.53330
716.00,3.57383
717.00,3.55697
718.00,3.53942
719.00,3.58363
720.00,3.59282
721.00,3.59688
722.00,3.62785
723.00,3.61483
724.00,3.60436
725.00,3.63161
726.00,3.65234
727.00,3.69107
728.00,3.64405
729.00,3.68628
730.00,3.69917
731.00,3.72696
732.00,3.71056
733.00,3.72431
734.00,3.76333
735.00,3.74591
736.00,3.77325
737.00,3.76979
738.00,3.74797
739.00,3.79972
740.00,3.79939
741.00,3.83418
742.00,3.83296
743.00,3.83676
744.00,3.87665
745.00,3.86370
746.00,3.82150
747.00,3.85836
748.00,3.89277
749.00,3.93080
750.00,3.92403
751.00,3.92754
752.00,3.95459
753.00,3.94443
754.00,3.96450
755.00,3.99056
756.00,3.97383
757.00,4.02473
758.00,4.06578
759.00,4.05415
760.00,4.05573
761.00,4.07522
762.00,4.06459
763.00,4.11528
764.00,4.14672
765.00,4.15147
766.00,4.10328
767.00,4.07507
768.00,4.13982
769.00,4.10931
770.00,4.15433
771.00,4.20415
772.00,4.20787
773.00,4.22203
774.00,4.17946
775.00,4.22927
776.00,4.27789
777.00,4.24303
778.00,4.26281
779.00,4.25744
780.00,4.28352
781.00,4.32201
782.00,4.29783
783.00,4.34295
784.00,4.34991
785.00,4.37654
786.00,4.28621
787.00,4.37033
788.00,4.38619
789.00,4.40447
790.00,4.37157
791.00,4.38319
792.00,4.43599
793.00,4.44967
794.00,4.50742
795.00,4.46425
796.00,4.47656
797.00,4.49680
798.00,4.53940
799.00,4.56370
800.00,4.51156
801.00,4.58010
802.00,4.58551
803.00,4.55772
804.00,4.65363
805.00,4.57005
806.00,4.57840
807.00,4.61594
808.00,4.66503
809.00,4.69413
810.00,4.65332
811.00,4.68022
812.00,4.68175
813.00,4.68311
814.00,4.62504
815.00,4.53822
816.00,4.70261
817.00,4.74191
818.00,4.79004
819.00,4.75414
820.00,4.74613
821.00,4.72645
822.00,4.80135
823.00,4.81375
824.00,4.78658
825.00,4.90660
826.00,4.81400
827.00,4.79212
828.00,4.82413
829.00,4.79718
830.00,4.87599
831.00,4.79394
832.00,4.82675
833.00,4.87208
834.00,5.00934
835.00,4.79513
836.00,5.01072
837.00,4.93820
838.00,4.88809
839.00,4.97010
840.00,4.80776
841.00,4.91212
842.00,4.91710
843.00,5.00195
844.00,4.91939
845.00,4.84790
846.00,4.83170
847.00,4.88861
848.00,5.19531
849.00,4.92262
850.00,4.99158
851.00,5.00133
852.00,5.07195
853.00,4.97991
854.00,4.61469
855.00,5.40312
856.00,4.83808
857.00,4.82267
858.00,4.72068
859.00,4.53571
860.00,5.22029
861.00,5.06542
862.00,5.01228
863.00,4.95685
864.00,4.58910
865.00,4.84757
866.00,4.28918
867.00,4.49030
868.00,5.13361
869.00,5.49481
870.00,5.02565
871.00,4.92580
872.00,4.95680
873.00,4.86838
874.00,4.78099
875.00,5.92320
876.00,5.18655
877.00,4.55752
878.00,4.98336
879.00,5.00352
880.00,5.60962
881.00,4.52649
882.00,5.11832
883.00,3.66149
884.00,4.29768
885.00,3.88145
886.00,5.72561
887.00,2.90581
888.00,5.45472
889.00,3.86116
890.00,5.52340
891.00,5.25560
892.00,4.28792
893.00,2.98163
894.00,5.26330
895.00,6.11410
896.00,2.32610
897.00,6.34570
898.00,3.00905
899.00,4.23779
900.00,4.14039
